time,ax,ay,az,aT
0.004000,0.3299,0.1249,0.4607,0.580
0.005000,0.2900,-0.0729,0.3360,0.450
0.006000,0.1760,-0.2871,0.2364,0.411
0.006000,-0.0261,-0.4080,0.1661,0.441
0.013000,-0.1797,-0.3833,0.1705,0.456
0.014000,-0.3361,-0.2770,0.1316,0.455
0.018000,-0.4127,-0.1388,-0.0147,0.436
0.027000,-0.3975,-0.0471,-0.2100,0.452
0.028000,-0.3264,-0.0380,-0.3163,0.456
0.033000,-0.1687,-0.1212,-0.2772,0.346
0.045000,0.0210,-0.2479,-0.2827,0.377
0.046000,0.1236,-0.3084,-0.1927,0.384
0.049000,0.1305,-0.3326,-0.1674,0.395
0.057000,0.0955,-0.2657,-0.1529,0.321
0.058000,0.1007,-0.1770,-0.0943,0.224
0.064000,0.1024,-0.1035,-0.1222,0.190
0.069000,0.0541,-0.0801,-0.1981,0.220
0.083000,0.0299,-0.1232,-0.3268,0.351
0.084000,-0.0052,-0.1144,-0.3541,0.372
0.084000,-0.0064,-0.1467,-0.3736,0.401
0.105000,0.0104,-0.1747,-0.3625,0.403
0.106000,0.0473,-0.1146,-0.4576,0.474
0.106000,0.0911,-0.0165,-0.4541,0.463
0.107000,0.1495,0.0033,-0.3677,0.397
0.109000,0.1635,0.0131,-0.2617,0.309
0.114000,0.1716,-0.0092,-0.1178,0.208
0.119000,0.1919,-0.0746,0.0008,0.206
0.124000,0.3033,-0.1103,0.1444,0.354
0.130000,0.2957,-0.1038,0.2597,0.407
0.135000,0.2644,-0.1090,0.3183,0.428
0.140000,0.2330,-0.1081,0.2785,0.379
0.144000,0.1803,-0.0963,0.2481,0.321
0.150000,0.1291,-0.1215,0.2868,0.337
0.155000,0.0452,-0.0950,0.2438,0.266
0.160000,-0.0164,-0.1218,0.1619,0.203
0.165000,-0.0536,-0.1107,0.0710,0.142
0.172000,-0.1660,-0.1464,0.0484,0.226
0.175000,-0.2066,-0.1735,0.0592,0.276
0.181000,-0.2316,-0.1954,0.0697,0.311
0.185000,-0.1804,-0.1856,0.1323,0.291
0.204000,-0.1453,-0.1729,0.1609,0.277
0.205000,-0.0805,-0.1752,0.1796,0.263
0.206000,0.0525,-0.1091,0.1742,0.212
0.209000,0.1657,-0.0657,0.1448,0.230
0.211000,0.2724,-0.0667,0.1265,0.308
0.216000,0.3356,-0.0165,0.0833,0.346
0.238000,0.3001,-0.0502,-0.0109,0.304
0.239000,0.2198,-0.0350,-0.0105,0.223
0.240000,0.1106,0.0280,0.0473,0.123
0.241000,0.0352,0.0538,0.0751,0.099
0.241000,-0.1018,0.0602,0.0896,0.148
0.246000,-0.1931,0.0927,0.0884,0.232
0.251000,-0.2279,0.0733,0.0514,0.245
0.256000,-0.1516,0.0811,0.0169,0.173
0.261000,-0.0553,0.0611,0.0219,0.085
0.267000,-0.0012,0.0362,0.0138,0.039
0.272000,0.0925,0.0400,-0.0100,0.101
0.277000,0.1127,0.0379,-0.0913,0.150
0.282000,0.0767,0.0480,-0.0817,0.122
0.286000,0.1495,-0.0195,0.0162,0.152
0.292000,0.2333,-0.1201,0.0924,0.278
0.297000,0.0547,-0.1668,0.0227,0.177
0.302000,-0.2821,0.1119,-0.0803,0.314
0.319000,-0.2871,0.2995,-0.2032,0.462
0.320000,-0.0583,0.3352,-0.2731,0.436
0.321000,0.0843,0.3026,-0.2792,0.420
0.347000,0.0353,0.0826,-0.2398,0.256
0.348000,0.0623,-0.1057,-0.1562,0.199
0.349000,0.1141,-0.1963,-0.0993,0.248
0.349000,0.1421,-0.1868,-0.1015,0.256
0.350000,0.1222,-0.1083,-0.1318,0.210
0.350000,0.0665,-0.0302,-0.1854,0.199
0.352000,0.0375,0.0584,-0.2371,0.247
0.361000,0.0159,0.1022,-0.1864,0.213
0.363000,0.0030,0.1250,-0.1436,0.190
0.368000,0.0362,0.1004,-0.1202,0.161
0.376000,0.0143,0.0699,-0.0792,0.107
0.378000,-0.0158,0.0087,-0.0716,0.074
0.383000,-0.0988,0.0214,-0.1031,0.144
0.389000,-0.2103,0.0102,-0.0700,0.222
0.393000,-0.2597,0.0890,0.0758,0.285
0.398000,-0.2337,0.1695,0.2050,0.354
0.403000,-0.1984,0.2301,0.1755,0.351
0.420000,-0.1965,0.2012,0.0258,0.282
0.421000,-0.2624,0.1332,-0.2002,0.356
0.422000,-0.3544,0.1188,-0.4429,0.580
0.425000,-0.3636,0.0988,-0.6092,0.716
0.428000,-0.2750,0.1121,-0.6708,0.734
0.433000,-0.2313,0.2071,-0.7369,0.800
0.449000,-0.3087,0.4793,-0.8411,1.016
0.450000,-0.2039,0.5047,-0.6146,0.821
0.451000,0.0557,0.2150,-0.0231,0.223
0.454000,0.0940,0.0772,0.2309,0.261
0.465000,0.0361,0.0156,0.3617,0.364
0.466000,-0.0143,0.0554,0.4661,0.470
0.469000,-0.0913,0.0985,0.3119,0.340
0.480000,-0.1754,0.2739,0.1023,0.341
0.481000,-0.2997,0.3844,-0.0436,0.489
0.484000,-0.3631,0.4756,-0.1849,0.626
0.491000,-0.4245,0.4771,-0.3122,0.711
0.494000,-0.4828,0.3705,-0.4875,0.780
0.499000,-0.3842,0.2147,-0.6988,0.826
0.504000,-0.0154,-0.3185,-1.0241,1.073
0.522000,0.2439,-0.8418,-1.4790,1.719
0.525000,-0.0239,-0.6781,-1.7616,1.888
0.526000,-0.1938,-0.3783,-1.7105,1.762
0.527000,-0.3611,0.0353,-1.1532,1.209
0.529000,-0.5048,0.5455,-0.3095,0.805
0.534000,-0.5987,0.9174,0.4469,1.183
0.551000,-0.7181,1.2274,1.1573,1.833
0.553000,-0.7384,1.3355,1.5207,2.154
0.553000,-0.7891,1.2875,1.2769,1.978
0.565000,-0.7939,0.9795,1.1180,1.685
0.566000,-0.7684,0.5031,1.0318,1.381
0.567000,-0.6450,-0.1680,0.8850,1.108
0.570000,-0.5050,-0.8131,0.8544,1.283
0.579000,-0.4419,-1.1830,0.7754,1.482
0.580000,-0.4351,-1.4704,0.6207,1.654
0.585000,-0.4466,-1.5808,0.3014,1.670
0.591000,-0.4533,-1.4338,-0.0345,1.504
0.595000,-0.4644,-1.2107,-0.0277,1.297
0.600000,-0.4071,-0.8112,0.2760,0.949
0.606000,-0.3662,-0.4410,0.7058,0.909
0.610000,-0.2621,-0.4248,0.9332,1.058
0.616000,-0.1792,-0.5389,0.7235,0.920
0.621000,-0.1099,-0.6826,0.1609,0.710
0.638000,0.0577,-0.8129,-0.5288,0.971
0.639000,0.3057,-0.9584,-1.1728,1.545
0.640000,0.5050,-0.9875,-1.5699,1.922
0.643000,0.6125,-0.9451,-1.5358,1.904
0.646000,0.6341,-0.9086,-1.2258,1.652
0.651000,0.6069,-0.7848,-0.7659,1.253
0.669000,0.5054,-0.6403,-0.2805,0.863
0.670000,0.2975,-0.4461,0.0075,0.536
0.671000,0.0886,-0.2330,0.2110,0.327
0.685000,-0.0591,-0.0354,0.1381,0.154
0.686000,-0.2008,0.1671,0.1314,0.292
0.687000,-0.2746,0.2957,0.2963,0.501
0.688000,-0.3125,0.2898,0.4211,0.599
0.701000,-0.2432,0.1883,0.3109,0.437
0.702000,-0.1562,0.0332,-0.0462,0.166
0.703000,-0.1018,-0.1058,-0.3405,0.371
0.712000,-0.1029,-0.1874,-0.3062,0.373
0.713000,-0.2354,-0.1800,-0.0188,0.297
0.717000,-0.3850,-0.1303,0.1324,0.427
0.738000,-0.5528,-0.0652,0.2536,0.612
0.740000,-0.6223,-0.0829,0.1808,0.653
0.740000,-0.6117,-0.0923,0.0459,0.620
0.741000,-0.6272,-0.0764,0.0844,0.637
0.744000,-0.7380,0.0427,0.3563,0.821
0.747000,-1.0549,0.1053,0.2393,1.087
0.752000,-1.0239,0.0554,-0.3361,1.079
0.768000,-0.2554,-0.1896,-0.4948,0.588
0.769000,0.2376,-0.5657,-0.1626,0.635
0.770000,0.0930,-0.5289,0.2451,0.590
0.782000,0.0437,-0.2713,0.4504,0.528
0.783000,0.1552,-0.1484,0.5377,0.579
0.783000,1.0278,0.3582,0.8145,1.359
0.795000,1.9474,0.6878,1.1691,2.373
0.796000,2.0038,0.2768,1.0799,2.293
0.797000,2.0155,-0.0201,0.3730,2.050
0.803000,1.7579,-0.1774,-0.6237,1.874
0.808000,1.3456,-0.2053,-1.1626,1.790
0.812000,1.3184,-0.2859,-1.0448,1.706
0.818000,1.5554,-0.5975,-0.8472,1.869
0.823000,1.6338,-1.0508,-0.6598,2.052
0.828000,1.3864,-1.2957,-0.0437,1.898
0.833000,1.0008,-1.4346,0.9008,1.968
0.839000,0.6438,-1.5411,1.9865,2.595
0.843000,0.5287,-1.7844,2.8989,3.445
0.848000,0.7100,-2.1481,3.3305,4.026
0.853000,1.0400,-2.3799,3.3422,4.233
0.869000,1.0273,-2.2875,3.4646,4.277
0.871000,0.9487,-2.0078,3.3375,4.009
0.873000,0.8764,-1.5922,3.1357,3.624
0.874000,0.5837,-0.9913,2.4563,2.712
0.900000,0.4262,-0.5299,1.6246,1.761
0.901000,0.3944,-0.1960,0.8402,0.949
0.901000,0.3304,0.1427,0.0763,0.368
0.902000,0.1376,0.4624,-0.6771,0.831
0.902000,-0.1276,0.7851,-1.2807,1.508
0.904000,-1.1717,1.3812,-2.3280,2.950
0.911000,-4.2306,2.8302,-4.0452,6.502
0.914000,-8.5956,4.8820,-5.1143,11.130
0.919000,-9.6474,5.0788,-3.6957,11.512
0.924000,-5.3693,2.4773,-1.2998,6.054
0.929000,-0.3304,-0.5805,0.0833,0.673
0.934000,1.5023,-1.3771,1.5044,2.533
0.953000,1.6039,-0.7163,1.8403,2.544
0.957000,1.1195,0.4016,-1.8350,2.187
0.958000,0.7238,0.6822,-5.3321,5.424
0.959000,0.5210,0.7170,-4.8821,4.962
0.963000,0.6519,0.6915,-3.0077,3.154
0.964000,1.0939,0.5890,-0.3662,1.295
0.969000,0.9260,0.3521,0.6367,1.178
0.979000,0.1425,0.1269,0.6782,0.705
0.980000,-0.6137,-0.0907,0.6072,0.868
0.985000,-1.0514,-0.2659,0.7182,1.301
0.991000,-1.2871,-0.3074,0.9139,1.608
0.995000,-1.5135,-0.3934,0.9068,1.808
1.000000,-1.6431,-0.5611,0.8787,1.946
1.005000,-1.4970,-0.7601,1.0332,1.971
1.009000,-0.8866,-0.5874,1.1266,1.549
1.015000,-0.0496,-0.0321,1.6116,1.613
1.020000,0.7221,0.7992,2.7332,2.938
1.025000,1.2332,0.5503,3.0030,3.293
1.030000,1.2457,-0.2121,2.5866,2.879
1.035000,0.8774,-0.5187,1.8472,2.110
1.050000,0.3035,-0.4773,0.8308,1.005
1.051000,0.0119,-0.4796,-0.0978,0.490
1.052000,0.1030,-0.5259,-0.8787,1.029
1.074000,0.2652,-0.5428,-1.2107,1.353
1.074000,0.2584,-0.4460,-1.2705,1.371
1.075000,0.1248,-0.2423,-1.1887,1.220
1.076000,0.0306,-0.1367,-1.1161,1.125
1.076000,-0.0166,-0.0438,-1.1647,1.166
1.081000,-0.0315,0.0374,-1.2517,1.253
1.086000,-0.0482,0.1395,-1.2230,1.232
1.091000,0.0778,0.2932,-0.9906,1.036
1.096000,0.2306,0.4690,-0.6776,0.856
1.101000,0.4796,0.4755,-0.0655,0.679
1.107000,0.6188,0.3357,0.9999,1.223
1.111000,0.4784,0.2713,1.5586,1.653
1.116000,0.1790,0.3077,0.6885,0.775
1.121000,-0.2170,0.3381,-0.8265,0.919
1.126000,-0.5738,0.3519,-2.1653,2.268
1.131000,-1.2145,0.3187,-3.0056,3.257
1.137000,-1.0528,0.0529,-1.7396,2.034
1.141000,0.1833,-0.2831,0.9165,0.977
1.147000,0.7530,-0.3656,0.0170,0.837
1.152000,0.5102,-0.3550,-1.0631,1.231
1.171000,0.0205,-0.2960,-0.4659,0.552
1.173000,-0.3279,-0.2357,-0.0506,0.407
1.173000,-0.3209,-0.1759,-0.1260,0.387
1.174000,-0.1953,-0.0824,-0.2154,0.302
1.177000,-0.0298,0.0135,-0.1842,0.187
1.182000,0.0746,0.1237,-0.0333,0.148
1.188000,0.0867,0.2277,0.1376,0.280
1.207000,0.1422,0.2419,0.2574,0.381
1.208000,0.2656,0.2357,0.4440,0.569
1.208000,0.3943,0.2017,0.5840,0.733
1.209000,0.4811,0.1694,0.5845,0.776
1.212000,0.4554,0.0909,0.5390,0.711
1.218000,0.3730,0.0282,0.4585,0.592
1.224000,0.3009,-0.1067,0.3620,0.483
1.228000,0.1810,-0.1876,0.3400,0.428
1.232000,-0.0033,-0.2096,0.3535,0.411
1.238000,-0.0717,-0.2139,0.3087,0.382
1.243000,-0.1204,-0.1956,0.1249,0.261
1.248000,-0.1842,-0.0942,-0.1787,0.273
1.253000,-0.1483,-0.0268,-0.4504,0.475
1.273000,-0.0927,-0.0660,-0.8574,0.865
1.274000,0.0554,-0.1797,-1.1587,1.174
1.275000,0.2186,-0.2828,-1.3675,1.413
1.277000,0.3435,-0.2421,-1.4209,1.482
1.279000,0.4582,-0.2182,-1.1888,1.293
1.283000,0.4430,-0.1572,-0.8475,0.969
1.289000,0.4234,-0.0304,-0.5526,0.697
1.310000,0.2910,0.1155,-0.2875,0.425
1.312000,0.2294,0.2096,0.0414,0.313
1.312000,0.2109,0.2917,0.3232,0.484
1.313000,0.1192,0.3913,0.6842,0.797
1.314000,0.0796,0.4235,0.8825,0.982
1.319000,0.0544,0.4115,1.0107,1.093
1.325000,0.1065,0.3414,1.0681,1.126
1.328000,0.1958,0.2701,1.1315,1.180
1.334000,0.2652,0.1437,1.2859,1.321
1.339000,0.1896,0.1148,1.3437,1.362
1.344000,0.1338,0.0993,1.2992,1.310
1.349000,0.1092,0.0913,1.2636,1.272
1.355000,0.0918,0.1472,1.2463,1.258
1.359000,0.1467,0.1927,1.1854,1.210
1.364000,0.2312,0.1862,1.0879,1.128
1.369000,0.3914,0.1417,0.8346,0.933
1.385000,0.2562,0.2062,0.5962,0.681
1.386000,-0.1044,0.3554,0.5929,0.699
1.386000,-0.2809,0.4816,0.4884,0.741
1.389000,-0.3644,0.5564,0.3365,0.745
1.407000,-0.4645,0.5703,0.1189,0.745
1.408000,-0.5573,0.5707,-0.0932,0.803
1.408000,-0.6008,0.5422,-0.2647,0.851
1.409000,-0.5119,0.5246,-0.3982,0.834
1.415000,-0.3272,0.5334,-0.4478,0.770
1.419000,-0.2368,0.5253,-0.3634,0.681
1.424000,-0.1272,0.4828,-0.2271,0.549
1.430000,-0.1106,0.3571,-0.0559,0.378
1.435000,-0.1451,0.2343,0.1032,0.294
1.441000,-0.1226,0.1499,0.3005,0.358
1.445000,-0.0473,0.0538,0.5643,0.569
1.450000,0.1317,-0.0611,0.6983,0.713
1.455000,0.2614,-0.1919,0.6685,0.743
1.460000,0.3751,-0.2665,0.5279,0.700
1.465000,0.4412,-0.1771,0.2217,0.525
1.470000,0.4612,-0.1353,-0.2148,0.526
1.490000,0.3261,-0.1460,-0.6845,0.772
1.491000,0.1666,-0.0526,-0.9223,0.939
1.492000,-0.1534,0.1645,-1.0631,1.087
1.495000,-0.6607,0.4387,-1.1183,1.371
1.495000,-0.9501,0.6031,-1.1141,1.584
1.501000,-0.9078,0.5958,-0.8164,1.359
1.506000,-0.7872,0.5412,-0.3697,1.024
1.525000,-0.5216,0.3720,-0.0839,0.646
1.526000,-0.3036,0.1592,-0.0035,0.343
1.527000,-0.2563,0.0287,0.0302,0.260
1.527000,-0.3318,-0.0307,0.1083,0.350
1.532000,-0.4458,-0.0156,0.1794,0.481
1.537000,-0.5342,-0.0145,0.1574,0.557
1.543000,-0.6202,-0.1171,0.0363,0.632
1.547000,-0.6332,-0.2391,-0.0585,0.679
1.552000,-0.6890,-0.2893,-0.0841,0.752
1.561000,-0.5877,-0.3286,-0.0887,0.679
1.563000,-0.3754,-0.3420,-0.1277,0.524
1.567000,-0.1708,-0.2780,-0.1458,0.357
1.572000,-0.0390,-0.1651,-0.1831,0.250
1.577000,0.0769,-0.0122,-0.1931,0.208
1.582000,0.1860,0.0265,-0.1317,0.229
1.587000,0.2239,0.0110,-0.0912,0.242
1.594000,0.1869,-0.0068,-0.1364,0.231
1.596000,0.0447,-0.0259,-0.0734,0.090
1.602000,-0.0873,-0.1048,-0.0603,0.149
1.607000,-0.1112,-0.1811,-0.1462,0.258
1.625000,-0.1213,-0.2501,-0.1133,0.300
1.627000,-0.1407,-0.2486,-0.0298,0.287
1.628000,-0.1867,-0.2040,-0.0395,0.279
1.628000,-0.2238,-0.1738,-0.1206,0.308
1.632000,-0.2446,-0.0944,-0.1573,0.306
1.637000,-0.1935,-0.1382,-0.1485,0.280
1.655000,-0.0948,-0.1913,0.0447,0.218
1.656000,0.0372,-0.2569,0.2790,0.381
1.658000,0.2187,-0.4204,0.4615,0.661
1.659000,0.3542,-0.8133,0.6123,1.078
1.663000,0.0396,-0.9055,0.1796,0.924
1.668000,-0.4572,-0.3503,-0.4165,0.711
1.673000,-0.5045,0.0073,0.0233,0.505
1.678000,-0.1663,0.0756,0.7457,0.768
1.683000,0.1476,-0.1085,1.1029,1.118
1.688000,0.1983,-0.4073,0.8391,0.954
1.706000,0.0392,-0.5413,0.0617,0.546
1.707000,-0.1645,-0.4793,-0.6017,0.787
1.707000,-0.3006,-0.3788,-0.7979,0.933
1.709000,-0.2975,-0.2698,-0.6454,0.760
1.713000,-0.2416,-0.2007,-0.3283,0.454
1.718000,-0.1541,-0.1859,-0.1060,0.264
1.723000,-0.0333,-0.2389,-0.0359,0.244
1.734000,0.0889,-0.2234,-0.0889,0.256
1.735000,0.1669,-0.2392,-0.1116,0.312
1.739000,0.2027,-0.1528,0.0005,0.254
1.747000,0.1254,-0.0596,0.3160,0.345
1.749000,-0.0345,0.0267,0.6068,0.608
1.753000,-0.1239,0.0525,0.7071,0.720
1.760000,-0.2210,-0.0467,0.6031,0.644
1.763000,-0.2836,-0.1226,0.4981,0.586
1.769000,-0.3315,-0.1332,0.3731,0.517
1.774000,-0.2987,-0.0462,0.2842,0.415
1.779000,-0.2881,0.0599,0.3099,0.427
1.784000,-0.3107,0.1735,0.4484,0.572
1.790000,-0.4202,0.2353,0.7434,0.886
1.794000,-0.5048,0.1968,0.8486,1.007
1.799000,-0.5606,0.0906,0.7044,0.905
1.804000,-0.5937,-0.0050,0.5917,0.838
1.823000,-0.5854,-0.0884,0.4913,0.769
1.824000,-0.4959,-0.0888,0.3670,0.623
1.824000,-0.3702,-0.1037,0.2555,0.462
1.825000,-0.2623,-0.1237,0.2755,0.400
1.852000,-0.1492,-0.1041,0.5254,0.556
1.853000,-0.0218,-0.0732,0.7568,0.761
1.853000,-0.0161,-0.0006,0.9786,0.979
1.854000,-0.1153,0.0732,1.2538,1.261
1.855000,-0.3476,0.1623,1.4929,1.541
1.856000,-0.5589,0.1870,1.6638,1.765
1.866000,-0.6435,0.1700,1.7320,1.855
1.868000,-0.6483,0.1528,1.7469,1.870
1.870000,-0.6260,0.1052,1.6398,1.758
1.882000,-0.6359,0.0835,1.5038,1.635
1.883000,-0.6824,0.1151,1.5317,1.681
1.885000,-0.6590,0.1282,1.7114,1.838
1.894000,-0.6378,0.1443,1.9984,2.103
1.896000,-0.6637,0.1547,2.2484,2.349
1.900000,-0.7584,0.1413,2.3407,2.465
1.906000,-0.8867,0.1681,2.4006,2.565
1.910000,-0.9475,0.0628,2.3697,2.553
1.916000,-0.9847,-0.0259,2.2985,2.501
1.921000,-1.0138,-0.0382,2.2981,2.512
1.949000,-1.0451,-0.0492,2.0586,2.309
1.951000,-0.9505,-0.1399,1.7334,1.982
1.952000,-0.8226,-0.1569,1.5557,1.767
1.953000,-0.7934,-0.1303,1.4095,1.623
1.953000,-0.7762,-0.0974,1.4433,1.642
1.955000,-0.6861,-0.0777,1.5638,1.709
1.957000,-0.8257,0.0099,1.6732,1.866
1.984000,-0.9604,0.0636,1.7428,1.991
1.986000,-0.8831,-0.1463,1.8923,2.093
1.988000,-0.9566,-0.4903,1.9720,2.246
1.989000,-1.4152,-0.9982,1.7272,2.446
1.990000,-1.2800,-1.1069,1.4661,2.239
1.991000,-1.2704,-0.6144,1.3613,1.961
2.009000,-1.1095,-0.0340,1.5871,1.937
2.010000,-0.4640,0.2301,1.9208,1.989
2.011000,-0.1127,0.3909,2.1824,2.220
2.012000,-0.1657,0.2656,2.2596,2.281
2.013000,-0.2330,-0.1580,2.1149,2.134
2.017000,-0.2794,-0.5309,2.0395,2.126
2.022000,-0.2404,-0.7245,2.0122,2.152
2.026000,-0.0401,-0.7633,2.0035,2.144
2.031000,0.0085,-0.6653,2.0196,2.126
2.037000,-0.0855,-0.5471,1.9448,2.022
2.054000,-0.2448,-0.5424,1.6176,1.724
2.055000,-0.3904,-0.5436,1.2308,1.401
2.056000,-0.4013,-0.7253,1.1848,1.446
2.080000,-0.3941,-0.8156,1.3161,1.598
2.081000,-0.4112,-0.8299,1.3436,1.632
2.082000,-0.4758,-0.8978,1.3402,1.682
2.083000,-0.4500,-0.9494,1.3314,1.696
2.083000,-0.4522,-1.0650,1.2956,1.737
2.084000,-0.4322,-1.1991,1.0887,1.676
2.088000,-0.3556,-1.3042,0.9696,1.664
2.093000,-0.2997,-1.3716,0.9236,1.681
2.097000,-0.2192,-1.4702,0.8347,1.705
2.103000,-0.2044,-1.5136,0.5999,1.641
2.109000,-0.2029,-1.4317,0.3859,1.497
2.113000,-0.1034,-1.3314,0.2541,1.359
2.118000,-0.0950,-1.2202,0.1806,1.237
2.123000,0.0126,-1.2996,0.3615,1.349
2.128000,0.0926,-1.3379,0.4473,1.414
2.133000,0.1292,-1.2379,0.2510,1.270
2.138000,0.1435,-1.1355,-0.1624,1.156
2.154000,0.1335,-1.1054,-0.4437,1.199
2.155000,0.1504,-1.1058,-0.7346,1.336
2.155000,0.2476,-1.2182,-0.8367,1.498
2.178000,0.3808,-1.2853,-0.6594,1.494
2.179000,0.3458,-1.3982,-0.4044,1.496
2.179000,0.1578,-1.4829,-0.1396,1.498
2.180000,0.0991,-1.6450,0.1161,1.652
2.181000,0.2350,-1.8503,0.2467,1.881
2.184000,0.1962,-1.9063,0.3260,1.944
2.189000,0.1595,-1.8825,0.4556,1.943
2.193000,0.1607,-1.8941,0.3491,1.933
2.199000,0.1263,-1.9302,0.0113,1.934
2.204000,-0.0501,-1.9467,-0.2813,1.968
2.210000,-0.1371,-1.9626,-0.6136,2.061
2.214000,-0.1450,-2.0548,-0.9371,2.263
2.219000,-0.1293,-2.0390,-1.1299,2.335
2.224000,-0.1298,-1.9874,-1.0247,2.240
2.229000,-0.1848,-1.9063,-0.6242,2.014
2.234000,-0.2034,-1.8558,-0.2414,1.882
2.240000,-0.2340,-1.9236,-0.0879,1.940
2.254000,-0.4026,-2.0548,-0.0563,2.095
2.255000,-0.6554,-2.1368,-0.1536,2.240
2.256000,-0.8976,-2.1855,-0.2268,2.373
2.279000,-0.9198,-2.2820,-0.4028,2.493
2.281000,-0.7824,-2.3487,-0.7663,2.591
2.282000,-0.5407,-2.3553,-1.0141,2.621
2.283000,-0.3339,-2.2005,-0.5638,2.296
2.284000,-0.0648,-1.9563,-0.5027,2.021
2.285000,0.4382,-1.6992,-1.2124,2.133
2.290000,0.5603,-1.3677,-1.4793,2.091
2.295000,0.5739,-1.0983,-1.6879,2.094
2.300000,0.6371,-0.9073,-1.9005,2.200
2.306000,0.5745,-0.8064,-1.8859,2.130
2.310000,0.3816,-0.8250,-1.6680,1.900
2.316000,0.3630,-1.0230,-1.5668,1.906
2.320000,0.3569,-1.2912,-1.3077,1.872
2.326000,0.4336,-1.5807,-0.9550,1.897
2.330000,0.4807,-1.7696,-0.8205,2.009
2.336000,0.5775,-1.8105,-0.7121,2.029
2.341000,0.5903,-1.6773,-0.4584,1.836
2.345000,0.6394,-1.4903,-0.3763,1.665
2.351000,0.7332,-1.3164,-0.3505,1.547
2.356000,0.8882,-1.2168,-0.4044,1.560
2.375000,1.0316,-1.2848,-0.2491,1.666
2.376000,1.1391,-1.2982,0.2009,1.739
2.377000,0.9352,-1.2682,1.3448,2.072
2.379000,1.0185,-1.3098,0.6089,1.767
2.383000,0.9873,-1.3832,-0.3537,1.736
2.386000,0.9476,-1.4040,-0.6798,1.825
2.391000,1.0306,-1.3410,-0.6397,1.808
2.409000,1.1075,-1.1861,-0.5288,1.707
2.411000,1.0435,-1.0159,-0.3831,1.506
2.411000,0.9734,-0.8999,-0.5159,1.422
2.412000,0.7943,-0.8667,-0.8343,1.442
2.417000,0.9742,-1.0640,-1.3492,1.975
2.422000,1.0302,-0.9857,-1.5679,2.119
2.427000,0.9656,-0.7733,-1.5908,2.015
2.432000,0.8934,-0.5283,-1.4270,1.764
2.437000,0.8977,-0.4254,-1.3154,1.648
2.445000,0.9353,-0.4751,-1.2679,1.646
2.448000,1.0179,-0.6126,-1.2109,1.696
2.452000,1.1638,-0.7864,-1.0864,1.776
2.457000,1.2649,-0.8259,-0.9727,1.797
2.462000,1.2308,-0.6787,-0.9009,1.669
2.467000,1.1517,-0.5602,-0.9656,1.604
2.472000,1.1298,-0.5216,-1.0428,1.624
2.493000,1.1982,-0.5963,-1.1341,1.754
2.494000,1.1597,-0.6765,-1.0705,1.717
2.495000,1.1194,-0.7372,-0.9205,1.626
2.496000,1.0127,-0.7916,-0.8286,1.529
2.498000,0.8580,-0.8684,-0.8504,1.488
2.502000,0.7537,-0.9451,-0.8251,1.464
2.508000,0.7423,-1.1138,-0.8437,1.582
2.528000,0.7346,-1.2731,-0.8726,1.709
2.529000,0.6712,-1.3667,-0.8166,1.728
2.529000,0.6331,-1.3958,-0.8553,1.755
2.530000,0.5314,-1.4310,-0.9471,1.796
2.533000,0.4310,-1.5114,-1.1002,1.918
2.538000,0.4042,-1.6321,-1.2518,2.096
2.544000,0.4292,-1.6242,-1.3070,2.129
2.548000,0.3954,-1.5405,-1.3024,2.056
2.553000,0.4220,-1.5041,-1.4005,2.098
2.558000,0.5157,-1.4477,-1.4298,2.099
2.563000,0.5923,-1.3751,-1.4824,2.107
2.568000,0.6572,-1.3398,-1.5328,2.139
2.574000,0.7410,-1.3347,-1.5079,2.146
2.588000,0.9545,-1.4206,-1.5005,2.276
2.589000,1.1476,-1.4720,-1.5710,2.440
2.590000,1.1750,-1.4246,-1.5804,2.431
2.612000,0.9762,-1.2344,-1.5330,2.197
2.613000,0.9600,-1.0929,-1.5035,2.092
2.614000,0.9912,-1.0898,-1.4325,2.055
2.614000,1.0593,-1.2023,-1.4085,2.133
2.616000,1.1462,-1.1567,-1.4795,2.200
2.619000,1.0634,-1.0192,-1.6097,2.182
2.624000,0.9623,-0.7946,-1.7080,2.115
2.629000,0.8507,-0.4963,-1.5381,1.826
2.633000,0.7705,-0.2648,-1.1349,1.397
2.639000,0.9564,-0.2997,-1.0432,1.447
2.645000,1.1996,-0.4402,-1.0478,1.652
2.649000,1.2082,-0.5234,-0.8838,1.586
2.654000,0.9791,-0.5529,-0.6426,1.295
2.661000,0.7344,-0.8094,-0.6910,1.293
2.664000,0.5022,-0.9744,-0.8802,1.406
2.669000,0.2345,-0.7025,-1.0702,1.301
2.674000,0.0262,-0.2946,-1.1443,1.182
2.679000,-0.0079,-0.0341,-1.2273,1.228
2.684000,0.0542,0.1360,-1.2073,1.216
2.689000,0.1732,0.2782,-0.9822,1.035
2.705000,0.3367,0.4144,-0.5754,0.785
2.706000,0.5319,0.5447,-0.2686,0.807
2.706000,0.5414,0.6773,-0.1884,0.887
2.709000,0.4947,0.5500,-0.4066,0.844
2.727000,0.4010,0.4754,-0.5623,0.838
2.728000,0.3418,0.5508,-0.5543,0.853
2.728000,0.1714,0.6881,-0.5675,0.908
2.731000,-0.1442,0.7614,-0.6056,0.983
2.735000,-0.2839,0.6037,-0.6342,0.920
2.740000,-0.2533,0.4769,-0.4468,0.701
2.745000,-0.1575,0.4560,-0.2558,0.546
2.750000,0.0778,0.3813,-0.0143,0.389
2.755000,0.3738,0.4084,0.2134,0.593
2.761000,0.5675,0.3561,0.3106,0.738
2.765000,0.7246,0.2888,0.3247,0.845
2.770000,0.7974,0.3512,0.0905,0.876
2.776000,0.7140,0.4200,-0.4873,0.961
2.781000,0.6679,0.4688,-0.9096,1.222
2.786000,0.5087,0.7045,-1.1677,1.456
2.791000,0.3273,0.9324,-1.3674,1.687
2.809000,0.0548,1.0381,-1.4444,1.780
2.810000,-0.1339,0.8105,-1.6028,1.801
2.811000,-0.1848,0.4557,-1.5799,1.655
2.812000,-0.1192,0.1760,-1.3413,1.358
2.817000,-0.1070,0.0956,-1.0297,1.040
2.820000,-0.0331,0.0332,-0.9285,0.930
2.826000,0.0556,-0.0258,-1.0400,1.042
2.842000,0.0218,-0.0418,-1.1360,1.137
2.843000,0.1035,-0.1869,-0.9527,0.976
2.843000,0.2650,-0.3484,-0.6609,0.793
2.847000,0.4301,-0.2595,-0.4650,0.685
2.852000,0.5680,-0.0031,-0.1625,0.591
2.857000,0.6936,0.3503,0.0825,0.781
2.862000,0.8990,0.6713,0.2041,1.140
2.868000,1.0523,0.8498,0.2760,1.380
2.872000,1.0082,0.7564,0.4649,1.343
2.879000,0.9746,0.5456,0.5006,1.224
2.882000,0.8488,0.3606,0.4514,1.027
2.887000,0.7054,0.1835,0.4954,0.881
2.892000,0.5982,0.0656,0.5060,0.786
2.899000,0.5160,-0.2357,0.6537,0.866
2.902000,0.4220,-0.4654,0.7024,0.942
2.907000,0.2199,-0.6866,0.7312,1.027
2.930000,0.2102,-0.9590,0.6999,1.206
2.931000,0.1673,-1.1139,0.6578,1.304
2.932000,0.0589,-1.0714,0.6687,1.264
2.933000,-0.0610,-0.8375,0.6717,1.075
2.940000,-0.3383,-0.4264,0.5069,0.744
2.941000,-0.6338,-0.0525,0.1906,0.664
2.965000,-0.7597,0.1169,-0.0745,0.772
2.966000,-0.7146,0.0798,-0.2168,0.751
2.968000,-0.7507,0.1868,-0.2028,0.800
2.969000,-0.7179,0.2992,-0.2436,0.815
2.969000,-0.4300,0.3229,-0.4331,0.690
2.970000,-0.2279,0.3103,-0.5745,0.692
2.973000,-0.0943,0.2828,-0.6346,0.701
2.980000,0.0119,0.3743,-0.6097,0.715
2.983000,-0.0455,0.6144,-0.4299,0.751
2.987000,-0.1370,0.6585,-0.2953,0.735
2.993000,-0.1395,0.6546,-0.3123,0.739
3.004000,0.0348,0.5512,-0.0519,0.555
3.005000,0.2766,0.3039,0.2163,0.464
3.008000,0.5074,-0.0776,0.2415,0.567
3.016000,0.5786,-0.3531,0.1901,0.704
3.018000,0.3519,-0.3745,0.2269,0.562
3.023000,0.3276,-0.4061,0.4253,0.673
3.039000,0.1101,-0.1920,0.9445,0.970
3.040000,0.1974,-0.2305,1.2111,1.249
3.040000,0.2479,-0.6253,0.7358,0.997
3.043000,0.0368,-0.8200,0.1280,0.831
3.060000,-0.2767,-0.5962,0.1766,0.681
3.061000,-0.5304,-0.3042,-0.1901,0.640
3.062000,-0.6745,-0.1002,-0.3592,0.771
3.064000,-1.1373,0.2240,-0.7543,1.383
3.069000,-1.4541,0.3229,-0.5917,1.603
3.074000,-0.8386,-0.2096,-1.5336,1.760
3.081000,-0.3813,-0.4407,-0.6386,0.864
3.084000,0.1631,-0.3118,0.1849,0.398
3.089000,0.3785,0.0276,0.4221,0.568
3.095000,0.1635,0.7127,1.0157,1.252
3.099000,0.8775,0.3825,-0.6175,1.139
3.104000,0.4725,0.6873,-0.1257,0.843
3.109000,0.5201,0.4712,-0.5200,0.873
3.114000,0.4008,0.1672,-0.5923,0.734
3.119000,-0.4894,0.6840,0.8084,1.167
3.125000,-0.3012,0.4350,0.1096,0.540
3.143000,-0.7407,0.2635,0.5161,0.940
3.145000,0.4430,-0.9753,-1.3592,1.731
3.145000,-0.2238,-0.9659,-0.8610,1.313
3.146000,-0.2123,-0.7417,-1.3179,1.527
3.150000,-0.0913,-0.7924,-1.3127,1.536
3.155000,-0.2976,0.3292,0.3581,0.570
3.160000,-0.8435,1.7386,-0.2563,1.949
3.176000,-0.5804,1.4208,-2.3309,2.791
3.178000,0.0408,0.7991,-3.1683,3.268
3.180000,0.7848,0.6302,-3.3516,3.499
3.183000,1.9976,-0.0038,-2.5014,3.201
3.185000,0.5576,0.1441,-0.7889,0.977
3.191000,-0.3453,0.4772,0.5500,0.806
3.197000,-1.1457,0.8642,1.9404,2.413
3.200000,-1.7742,1.3148,2.1168,3.059
3.206000,-1.9870,1.5319,2.1851,3.327
3.211000,-2.0927,1.5924,2.0533,3.336
3.216000,-1.8914,1.4836,2.0176,3.138
3.221000,-1.3969,1.2787,1.6145,2.489
3.226000,-0.9001,1.0753,1.1551,1.817
3.242000,-0.5632,0.8757,0.9641,1.419
3.243000,-0.4638,0.6188,0.7812,1.099
3.244000,-0.2680,0.4255,0.6399,0.814
3.246000,-0.1904,0.1331,0.4278,0.487
3.267000,-0.0947,-0.0885,0.2008,0.239
3.268000,-0.2163,-0.2265,-0.0045,0.313
3.269000,-0.2707,-0.3194,-0.1496,0.445
3.269000,-0.2795,-0.4390,-0.2351,0.571
3.270000,-0.2015,-0.5689,-0.3602,0.703
3.276000,-0.2229,-0.6843,-0.4333,0.840
3.281000,-0.4125,-0.7948,-0.5245,1.038
3.286000,-0.6009,-0.9031,-0.7455,1.316
3.291000,-0.7028,-1.0643,-0.8618,1.539
3.298000,-0.7107,-1.2821,-0.8558,1.697
3.301000,-0.6648,-1.5673,-0.7959,1.879
3.307000,-0.7334,-1.7607,-0.5398,1.982
3.313000,-0.8561,-2.0323,-0.2059,2.215
3.317000,-0.8901,-2.2361,0.1428,2.411
3.321000,-0.9652,-2.3192,0.4004,2.544
3.327000,-1.2201,-1.6387,0.5013,2.104
3.332000,-1.4186,-1.1792,0.4788,1.906
3.337000,-1.0905,-2.0446,0.4711,2.365
3.342000,-0.8383,-1.9714,0.4552,2.190
3.358000,-0.9720,-0.7862,0.2869,1.283
3.359000,-1.3499,0.7431,0.1121,1.545
3.360000,-1.4983,2.2928,-0.0362,2.739
3.392000,-1.4123,4.1024,0.0965,4.340
3.395000,-1.1107,5.3970,0.4934,5.532
3.397000,-0.8193,6.0568,0.4207,6.126
3.398000,-0.4007,6.0479,0.1719,6.064
3.400000,0.0966,5.4570,-0.2731,5.465
3.400000,0.7876,4.6190,-0.5609,4.719
3.402000,1.2873,3.7706,-0.6718,4.041
3.403000,1.5339,2.9183,-0.7893,3.390
3.404000,1.5518,2.1896,-0.7368,2.783
3.408000,1.4619,1.6363,-0.5401,2.260
3.413000,1.3425,1.1387,-0.2321,1.776
3.418000,1.1779,0.7744,0.0935,1.413
3.423000,1.1191,0.4655,0.2714,1.242
3.430000,0.9889,0.0449,0.3509,1.050
3.434000,0.8004,-0.3890,0.5069,1.024
3.438000,0.7312,-0.8134,0.4816,1.195
3.443000,0.5659,-0.9913,0.2922,1.178
3.448000,0.2904,-0.8941,0.1918,0.959
3.453000,0.0783,-0.6605,0.1991,0.694
3.459000,-0.1794,-0.3214,0.3068,0.479
3.475000,-0.2955,0.0636,0.5026,0.586
3.476000,-0.4472,0.4623,0.4894,0.808
3.477000,-0.6406,0.7457,0.6924,1.202
3.503000,-1.0648,0.9764,0.8046,1.654
3.504000,-1.3519,0.8711,0.6555,1.737
3.505000,-1.3187,0.4647,0.1295,1.404
3.505000,-1.1777,0.1108,-0.0913,1.186
3.506000,-0.8740,-0.1876,-0.2597,0.931
3.506000,-0.6102,-0.4262,-0.4524,0.871
3.509000,-0.4549,-0.5827,-0.4348,0.858
3.515000,-0.3614,-0.7194,-0.4982,0.947
3.519000,-0.3294,-0.7074,-0.6031,0.986
3.524000,-0.3046,-0.4951,-0.5534,0.803
3.530000,-0.3135,-0.2634,-0.4634,0.618
3.536000,-0.2593,-0.0835,-0.3224,0.422
3.539000,-0.2265,0.0629,-0.1272,0.267
3.544000,-0.1382,0.0336,0.1289,0.192
3.549000,-0.0359,0.0240,0.3757,0.378
3.554000,0.0487,0.0568,0.4346,0.441
3.559000,0.2072,0.0460,0.4187,0.469
3.575000,0.3024,0.0141,0.4238,0.521
3.576000,0.3675,-0.0232,0.3896,0.536
3.576000,0.4652,-0.0722,0.2958,0.556
3.601000,0.5448,-0.1197,0.1893,0.589
3.602000,0.6368,-0.1553,0.0710,0.659
3.602000,0.7218,-0.1946,-0.0601,0.750
3.603000,0.7592,-0.1731,-0.1170,0.787
3.603000,0.8160,-0.1832,-0.1911,0.858
3.605000,0.8429,-0.1888,-0.2565,0.901
3.610000,0.8723,-0.1818,-0.2357,0.922
3.615000,0.8802,-0.1657,-0.1824,0.914
3.620000,0.8868,-0.1955,-0.0870,0.912
3.625000,0.8372,-0.2135,-0.0054,0.864
3.630000,0.8198,-0.2127,0.0496,0.848
3.635000,0.7762,-0.1893,0.0712,0.802
3.640000,0.7123,-0.1889,0.1147,0.746
3.646000,0.6520,-0.2507,0.1361,0.712
3.651000,0.5687,-0.2395,0.1618,0.638
3.656000,0.4935,-0.2533,0.1694,0.580
3.661000,0.2755,-0.3113,0.0130,0.416
3.666000,0.1403,-0.3190,0.0856,0.359
3.671000,0.2516,-0.2690,0.1159,0.386
3.676000,0.3126,-0.2311,0.0724,0.395
3.695000,0.3270,-0.3186,0.0113,0.457
3.697000,0.3319,-0.3176,-0.0973,0.470
3.698000,0.3970,-0.2138,-0.1091,0.464
3.698000,0.3810,-0.1725,-0.1499,0.444
3.702000,0.3725,-0.1074,-0.1848,0.429
3.706000,0.3367,-0.0724,-0.2151,0.406
3.711000,0.3488,-0.0542,-0.2206,0.416
3.730000,0.3465,-0.0492,-0.2527,0.432
3.731000,0.3214,-0.0192,-0.2387,0.401
3.732000,0.2901,0.0191,-0.2368,0.375
3.732000,0.2972,0.0382,-0.2255,0.375
3.737000,0.2957,0.0274,-0.2192,0.369
3.742000,0.2559,0.0453,-0.2240,0.343
3.748000,0.2513,0.0188,-0.2109,0.329
3.752000,0.2411,0.0305,-0.1681,0.296
3.757000,0.1978,0.0946,-0.1376,0.259
3.765000,0.2027,0.0989,-0.1572,0.275
3.767000,0.2105,0.0935,-0.1314,0.265
3.772000,0.2307,0.0676,-0.1319,0.274
3.777000,0.2500,0.1183,-0.0918,0.291
3.782000,0.1909,0.1712,-0.0778,0.268
3.787000,0.1546,0.1775,-0.0698,0.246
3.792000,0.1542,0.1395,-0.0281,0.210
3.811000,0.1620,0.1088,-0.0642,0.205
3.813000,0.1803,0.0937,-0.0512,0.210
3.814000,0.1997,0.0883,-0.0286,0.220
3.814000,0.1725,0.0267,-0.0229,0.176
3.817000,0.1438,-0.0169,-0.0087,0.145
3.822000,0.1345,-0.0257,0.0486,0.145
3.828000,0.1049,-0.0023,0.0367,0.111
3.847000,0.0800,-0.0194,0.0275,0.087
3.849000,0.0275,-0.0627,0.0583,0.090
3.849000,-0.0596,-0.0365,0.0439,0.083
3.850000,-0.1313,-0.0066,0.0190,0.133
3.853000,-0.1803,-0.0318,0.0171,0.184
3.858000,-0.2200,0.0090,0.0094,0.220
3.865000,-0.2706,-0.0017,0.0003,0.271
3.869000,-0.2471,0.0247,0.0151,0.249
3.873000,-0.2358,0.0355,0.0608,0.246
3.879000,-0.2757,0.0689,0.0858,0.297
3.884000,-0.2878,0.0676,0.0930,0.310
3.889000,-0.2949,0.0842,0.1168,0.328
3.893000,-0.2922,0.0768,0.1225,0.326
3.915000,-0.3033,0.1028,0.1116,0.339
3.917000,-0.2831,0.1132,0.1271,0.330
3.918000,-0.2844,0.1355,0.1592,0.353
3.919000,-0.2918,0.1171,0.1434,0.346
3.921000,-0.2167,0.0558,0.0786,0.237
3.923000,-0.2252,0.0326,0.0362,0.230
3.929000,-0.2433,0.0489,0.0616,0.256
3.944000,-0.2469,0.0412,0.0207,0.251
3.945000,-0.2674,0.0717,0.0582,0.283
3.946000,-0.2185,0.0912,0.0700,0.247
3.956000,-0.1843,0.1239,0.0694,0.233
3.957000,-0.1993,0.1518,0.1127,0.275
3.959000,-0.1485,0.1186,0.1811,0.262
3.968000,-0.1370,0.1561,0.2006,0.289
3.972000,-0.1147,0.1863,0.2035,0.299
3.974000,-0.0913,0.1317,0.1767,0.239
3.979000,-0.0498,0.1250,0.1899,0.233
3.986000,-0.0439,0.1351,0.1999,0.245
3.989000,-0.0462,0.1093,0.2401,0.268
3.994000,-0.0123,0.0811,0.2531,0.266
3.999000,-0.0335,0.1081,0.2868,0.308
4.004000,-0.0390,0.1231,0.2788,0.307
4.009000,-0.0396,0.0604,0.2616,0.271
4.025000,-0.0487,0.0708,0.2482,0.263
4.026000,-0.0183,0.0644,0.2506,0.259
4.026000,-0.0168,0.0677,0.2327,0.243
4.051000,-0.0490,0.0423,0.2499,0.258
4.052000,-0.0407,0.0267,0.2553,0.260
4.053000,-0.0840,0.0314,0.2430,0.259
4.053000,-0.1491,0.0459,0.2896,0.329
4.053000,-0.1497,0.0424,0.2779,0.319
4.055000,-0.1854,0.0475,0.2881,0.346
4.060000,-0.1790,0.0616,0.3069,0.361
4.065000,-0.1871,0.0579,0.3142,0.370
4.070000,-0.1760,0.0365,0.2863,0.338
4.075000,-0.1970,0.0462,0.2685,0.336
4.081000,-0.2309,0.0570,0.3166,0.396
4.085000,-0.2157,0.0762,0.2649,0.350
4.091000,-0.1923,0.0334,0.2343,0.305
4.096000,-0.2119,0.0790,0.1886,0.294
4.100000,-0.1849,0.0992,0.1174,0.240
4.106000,-0.1854,0.0801,0.1608,0.258
4.111000,-0.2050,0.0932,0.1388,0.265
4.132000,-0.1887,0.0825,0.1409,0.250
4.134000,-0.1915,0.1301,0.1278,0.264
4.134000,-0.1788,0.1085,0.0759,0.222
4.136000,-0.1957,0.1013,0.0520,0.226
4.137000,-0.2007,0.1109,0.0178,0.230
4.141000,-0.1653,0.0586,-0.0229,0.177
4.169000,-0.1516,0.0888,-0.0466,0.182
4.170000,-0.1179,0.0558,-0.0214,0.132
4.171000,-0.1437,0.0396,-0.0323,0.153
4.171000,-0.1373,0.0735,-0.0087,0.156
4.172000,-0.1441,0.0714,0.0278,0.163
4.174000,-0.1103,0.0563,0.0819,0.148
4.177000,-0.0685,0.0307,0.0800,0.110
4.183000,-0.0899,-0.0030,0.1200,0.150
4.186000,-0.1042,0.0397,0.1491,0.186
4.193000,-0.0662,-0.0129,0.1534,0.168
4.199000,-0.0191,-0.0627,0.1415,0.156
4.204000,-0.0045,-0.0657,0.0642,0.092
4.207000,-0.0197,-0.0853,-0.0410,0.097
4.212000,0.0187,-0.0775,-0.0329,0.086
4.220000,0.0424,-0.0579,-0.0430,0.084
4.222000,0.0100,-0.0457,-0.0806,0.093
4.227000,0.0098,-0.0585,-0.0697,0.092
4.242000,0.0275,-0.0262,-0.0510,0.064
4.243000,-0.0108,0.0034,-0.0338,0.036
4.243000,-0.0250,-0.0147,0.0211,0.036
4.270000,-0.0344,-0.0634,0.0307,0.078
4.271000,-0.0473,-0.0548,0.0368,0.081
4.271000,-0.0887,-0.0462,0.0598,0.116
4.272000,-0.0573,-0.0055,0.0319,0.066
4.272000,-0.0442,0.0052,0.0496,0.067
4.273000,-0.0598,0.0219,0.0067,0.064
4.278000,-0.0506,0.0194,-0.0570,0.079
4.283000,-0.0179,0.0645,-0.0872,0.110
4.288000,-0.0357,0.0534,-0.0902,0.111
4.293000,-0.1037,0.0804,-0.1328,0.187
4.298000,-0.0730,0.0383,-0.1339,0.157
4.303000,0.0161,0.0132,-0.1212,0.123
4.308000,0.0390,0.0002,-0.1505,0.155
4.313000,0.0735,0.0110,-0.1372,0.156
4.319000,0.0673,-0.0128,-0.1087,0.128
4.324000,0.0647,-0.0126,-0.0877,0.110
4.328000,0.0596,0.0101,-0.0587,0.084
4.344000,0.0746,-0.0373,-0.0119,0.084
4.346000,0.0574,0.0142,-0.0010,0.059
4.346000,0.0451,0.0047,-0.0029,0.045
4.376000,0.0366,-0.0070,0.0225,0.044
4.377000,0.0282,-0.0055,-0.0281,0.040
4.378000,0.0078,-0.0171,-0.0307,0.036
4.379000,0.0102,-0.0310,-0.0225,0.040
4.379000,0.0243,-0.0067,-0.0191,0.032
4.380000,-0.0058,0.0151,-0.0359,0.039
4.381000,-0.0261,0.0188,-0.0287,0.043
4.391000,-0.0216,0.0285,-0.0300,0.047
4.392000,-0.0293,0.0109,-0.0561,0.064
4.394000,-0.0169,0.0279,-0.0357,0.048
4.405000,-0.0344,0.0091,-0.0238,0.043
4.406000,-0.0091,0.0273,-0.0465,0.055
4.410000,-0.0304,0.0145,-0.0785,0.085
4.419000,-0.0741,-0.0243,-0.0890,0.118
4.421000,-0.0725,-0.0165,-0.0639,0.098
4.425000,-0.0545,-0.0230,-0.0972,0.114
4.431000,-0.0105,-0.0187,-0.0566,0.061
4.437000,-0.0120,-0.0228,-0.0854,0.089
4.441000,0.0006,-0.0209,-0.0688,0.072
4.444000,0.0238,0.0058,-0.0704,0.075
4.462000,0.0007,-0.0306,-0.0627,0.070
4.464000,0.0168,-0.0180,-0.0396,0.047
4.465000,-0.0051,-0.0614,-0.0525,0.081
4.468000,0.0124,-0.0308,-0.0105,0.035
4.472000,-0.0023,-0.0206,0.0026,0.021
4.475000,0.0116,-0.0343,0.0087,0.037
4.479000,0.0290,0.0069,-0.0100,0.031
4.500000,-0.0071,0.0168,-0.0068,0.019
4.501000,0.0259,0.0113,0.0298,0.041
4.501000,0.0312,0.0012,0.0499,0.059
4.502000,0.0078,-0.0076,0.0225,0.025
4.505000,0.0010,-0.0305,0.0478,0.057
4.509000,0.0251,-0.0211,0.0539,0.063
4.515000,0.0596,-0.0356,0.0800,0.106
4.520000,0.0737,-0.0487,0.0539,0.104
4.525000,0.0604,-0.0321,0.0517,0.086
4.531000,0.0614,-0.0215,0.0435,0.078
4.536000,0.0126,-0.0348,0.0174,0.041
4.540000,0.0450,-0.0255,-0.0179,0.055
4.545000,0.0474,-0.0161,-0.0339,0.060
4.561000,0.0545,0.0204,-0.0522,0.078
4.562000,0.0259,0.0067,-0.0848,0.089
4.563000,0.0414,0.0027,-0.1219,0.129
4.566000,0.0282,0.0402,-0.1065,0.117
4.573000,0.0426,-0.0128,-0.1412,0.148
4.576000,0.0534,0.0070,-0.1248,0.136
4.596000,0.0332,-0.0078,-0.1215,0.126
4.597000,-0.0021,0.0155,-0.1064,0.107
4.598000,0.0056,0.0172,-0.0877,0.090
4.598000,0.0205,0.0379,-0.0645,0.078
4.602000,0.0057,0.0121,-0.0545,0.056
4.606000,0.0222,-0.0278,-0.0589,0.069
4.612000,-0.0017,-0.0068,-0.0215,0.023
4.616000,-0.0181,0.0117,-0.0188,0.029
4.622000,-0.0329,0.0038,-0.0303,0.045
4.626000,-0.0236,-0.0266,-0.0214,0.042
4.634000,-0.0109,-0.0033,-0.0270,0.029
4.636000,-0.0198,-0.0348,0.0044,0.040
4.642000,-0.0117,-0.0423,-0.0012,0.044
4.647000,-0.0358,-0.0486,0.0205,0.064
4.651000,-0.0335,-0.0252,0.0348,0.054
4.657000,-0.0288,-0.0162,0.0159,0.037
4.662000,-0.0396,-0.0405,0.0172,0.059
4.676000,-0.0252,-0.0540,-0.0004,0.060
4.677000,-0.0215,-0.0483,-0.0190,0.056
4.678000,-0.0153,-0.0534,-0.0339,0.065
4.704000,-0.0245,-0.0443,-0.0024,0.051
4.705000,-0.0135,-0.0542,0.0383,0.068
4.706000,-0.0251,-0.0463,-0.0070,0.053
4.706000,-0.0164,-0.0574,-0.0365,0.070
4.707000,-0.0066,-0.0281,-0.0479,0.056
4.709000,-0.0205,-0.0382,-0.0191,0.047
4.713000,0.0049,-0.0649,-0.0358,0.074
4.719000,0.0122,-0.0463,-0.0512,0.070
4.724000,-0.0067,-0.0219,-0.0605,0.065
4.729000,0.0293,-0.0274,-0.0427,0.059
4.734000,0.0092,0.0051,-0.0357,0.037
4.739000,0.0058,0.0219,-0.0262,0.035
4.743000,0.0203,-0.0172,0.0105,0.029
4.750000,0.0313,0.0058,-0.0232,0.039
4.753000,-0.0006,0.0083,-0.0162,0.018
4.759000,0.0128,-0.0057,0.0063,0.015
4.764000,0.0205,-0.0589,0.0250,0.067
4.769000,0.0281,-0.0416,0.0032,0.050
4.774000,0.0037,-0.0469,-0.0064,0.048
4.779000,0.0140,-0.0464,-0.0375,0.061
4.796000,0.0634,-0.0292,-0.0314,0.077
4.797000,0.0233,-0.0632,-0.0313,0.074
4.798000,0.0264,-0.0685,-0.0422,0.085
4.824000,0.0270,-0.0262,-0.0255,0.045
4.825000,0.0218,-0.0378,-0.0164,0.047
4.826000,0.0369,-0.0255,-0.0287,0.053
4.826000,0.0233,-0.0181,-0.0576,0.065
4.827000,0.0005,-0.0226,-0.0305,0.038
4.827000,-0.0138,-0.0331,0.0071,0.037
4.830000,-0.0091,0.0005,-0.0068,0.011
4.838000,-0.0091,-0.0102,0.0044,0.014
4.840000,-0.0221,-0.0219,-0.0141,0.034
4.845000,-0.0481,-0.0027,-0.0111,0.049
4.851000,-0.0383,-0.0110,-0.0271,0.048
4.854000,-0.0440,-0.0334,-0.0431,0.070
4.860000,-0.0426,-0.0366,-0.0065,0.057
4.865000,-0.0340,-0.0386,-0.0191,0.055
4.873000,-0.0302,-0.0466,-0.0233,0.060
4.875000,-0.0335,-0.0403,-0.0392,0.065
4.880000,-0.0154,-0.0328,-0.0515,0.063
4.902000,0.0061,-0.0669,-0.0020,0.067
4.903000,0.0346,-0.0794,0.0137,0.088
4.904000,0.0214,-0.0681,-0.0075,0.072
4.904000,0.0131,-0.0842,0.0059,0.085
4.915000,0.0237,-0.0753,0.0167,0.081
4.915000,0.0401,-0.0367,-0.0166,0.057
4.916000,0.0363,-0.0115,-0.0140,0.041
4.932000,-0.0138,-0.0138,-0.0008,0.020
4.933000,0.0052,-0.0197,-0.0318,0.038
4.934000,0.0276,-0.0209,-0.0618,0.071
4.935000,-0.0072,-0.0221,-0.0231,0.033
4.941000,-0.0285,0.0039,0.0411,0.050
4.946000,-0.0649,-0.0060,0.0489,0.081
4.953000,-0.0975,-0.0050,0.0304,0.102
4.956000,-0.0774,0.0350,0.0123,0.086
4.961000,-0.0836,0.0653,0.0180,0.108
4.967000,-0.0992,0.0193,-0.0273,0.105
4.971000,-0.0743,-0.0168,-0.0069,0.077
4.976000,-0.0555,-0.0075,-0.0199,0.059
4.981000,-0.0758,-0.0137,0.0578,0.096
4.986000,-0.0710,-0.0531,0.1825,0.203
4.991000,-0.0129,-0.0505,0.2888,0.293
4.996000,0.0021,-0.0597,0.2593,0.266
5.010000,0.0204,-0.0865,0.2294,0.246
5.011000,0.0517,-0.1131,0.1976,0.233
5.012000,0.0886,-0.1169,0.0818,0.168
5.038000,0.1110,-0.1053,-0.0202,0.154
5.039000,0.0594,-0.0570,-0.0612,0.103
5.039000,0.0368,-0.0412,-0.0844,0.101
5.040000,0.0367,0.0136,-0.1551,0.160
5.040000,0.0163,0.0264,-0.1685,0.171
5.042000,0.0007,0.0652,-0.1796,0.191
5.047000,0.0138,0.0431,-0.1338,0.141
5.052000,0.0090,0.0188,-0.0565,0.060
5.057000,0.0093,-0.0589,0.0083,0.060
5.062000,-0.0068,-0.0528,0.0818,0.098
5.068000,-0.0071,-0.0433,0.0942,0.104
5.072000,-0.0024,-0.0945,0.1991,0.220
5.077000,-0.0119,-0.0763,0.2130,0.227
5.084000,-0.0201,-0.0832,0.2355,0.251
5.087000,-0.0117,-0.0627,0.2568,0.265
5.092000,0.0108,-0.0637,0.2093,0.219
5.098000,-0.0145,-0.0277,0.1601,0.163
5.111000,-0.0101,-0.0170,0.0984,0.100
5.113000,-0.0095,0.0186,0.0503,0.055
5.115000,-0.0197,0.0529,0.0172,0.059
5.140000,0.0021,0.0477,-0.0477,0.067
5.141000,0.0058,0.0580,-0.1144,0.128
5.141000,-0.0190,0.0789,-0.1010,0.130
5.142000,-0.0414,0.0497,-0.1318,0.147
5.143000,-0.0339,0.0766,-0.0852,0.120
5.144000,-0.0192,0.0474,-0.1032,0.115
5.149000,-0.0509,0.0019,-0.0617,0.080
5.154000,-0.0561,-0.0006,-0.0691,0.089
5.158000,-0.0539,0.0243,-0.0599,0.084
5.164000,-0.0470,0.0264,0.0110,0.055
5.168000,-0.0863,-0.0120,0.0541,0.103
5.174000,-0.0897,-0.0226,0.0649,0.113
5.179000,-0.0529,-0.0284,0.0722,0.094
5.184000,-0.0329,-0.0329,0.0665,0.081
5.188000,-0.0013,-0.0207,0.0718,0.075
5.194000,0.0015,0.0068,0.0165,0.018
5.199000,-0.0135,0.0151,0.0367,0.042
5.204000,-0.0225,0.0341,0.0556,0.069
5.209000,0.0338,0.0363,0.0139,0.052
5.214000,0.0314,0.0256,-0.0307,0.051
5.229000,0.0231,0.0351,-0.0334,0.054
5.230000,0.0349,0.0433,-0.0314,0.064
5.231000,0.0443,0.0218,-0.0746,0.089
5.252000,0.0512,0.0325,-0.0747,0.096
5.253000,0.0474,0.0430,-0.0547,0.084
5.254000,0.0401,0.0333,-0.1004,0.113
5.254000,0.0744,0.0260,-0.1198,0.143
5.255000,0.0229,0.0200,-0.0608,0.068
5.260000,0.0383,-0.0253,-0.0962,0.107
5.265000,0.0523,-0.0309,-0.0568,0.083
5.270000,0.0186,-0.0223,-0.0534,0.061
5.274000,0.0411,-0.0305,-0.0276,0.058
5.280000,0.0313,-0.0492,-0.0449,0.074
5.285000,0.0358,-0.0547,-0.0656,0.093
5.290000,0.0318,-0.0091,-0.0705,0.078
5.295000,0.0410,0.0088,0.0056,0.042
5.301000,0.0346,-0.0232,-0.0030,0.042
5.305000,0.0603,-0.0086,0.0219,0.065
5.310000,0.0382,-0.0510,-0.0041,0.064
5.315000,0.0141,-0.0824,-0.0417,0.093
5.320000,0.0400,-0.0708,-0.0266,0.086
5.326000,0.0465,-0.0794,-0.0519,0.106
5.331000,0.0578,-0.0440,-0.0511,0.089
5.348000,0.0499,-0.0790,-0.0872,0.128
5.350000,0.0375,-0.0437,-0.0814,0.100
5.351000,0.0073,-0.0099,-0.0734,0.074
5.352000,0.0248,-0.0238,-0.0728,0.081
5.355000,0.0351,-0.0247,-0.1008,0.110
5.360000,0.0443,-0.0208,-0.0800,0.094
5.365000,0.0426,-0.0169,-0.0522,0.069
5.382000,0.0694,-0.0249,-0.0637,0.097
5.383000,0.0675,0.0040,-0.0764,0.102
5.383000,0.0822,0.0172,-0.0484,0.097
5.386000,0.0742,0.0078,-0.0788,0.109
5.391000,0.1125,0.0043,-0.0877,0.143
5.396000,0.1041,0.0152,-0.1309,0.168
5.401000,0.0982,0.0200,-0.1145,0.152
5.406000,0.1172,-0.0275,-0.0875,0.149
5.412000,0.1088,-0.0247,-0.1192,0.163
5.418000,0.0861,-0.0065,-0.0983,0.131
5.421000,0.0792,0.0020,-0.1027,0.130
5.427000,0.0666,0.0009,-0.1118,0.130
5.432000,0.0327,0.0057,-0.1138,0.119
5.450000,0.0454,0.0117,-0.0862,0.098
5.451000,0.0259,0.0330,-0.0800,0.090
5.452000,-0.0111,0.0186,-0.0703,0.074
5.456000,0.0154,-0.0006,-0.0570,0.059
5.457000,-0.0130,0.0197,-0.0806,0.084
5.461000,-0.0163,0.0339,-0.0883,0.096
5.486000,0.0078,-0.0007,-0.0375,0.038
5.487000,-0.0087,-0.0183,-0.0323,0.038
5.488000,0.0023,0.0093,-0.0817,0.082
5.489000,0.0131,-0.0001,-0.0641,0.065
5.489000,0.0214,-0.0332,-0.0456,0.060
5.492000,0.0464,-0.0315,-0.0698,0.090
5.498000,0.0283,-0.0216,-0.0855,0.093
5.502000,0.0625,-0.0437,-0.0549,0.094
5.508000,0.0252,-0.0479,-0.0566,0.078
5.512000,0.0145,-0.0379,-0.0785,0.088
5.519000,0.0263,-0.0457,-0.0421,0.068
5.522000,0.0452,-0.0416,-0.0655,0.090
5.528000,0.0141,-0.0471,-0.0520,0.072
5.533000,0.0035,-0.0596,-0.0268,0.065
5.538000,0.0417,-0.0448,-0.0588,0.085
5.543000,0.0177,-0.0431,-0.0229,0.052
5.548000,-0.0048,-0.0118,-0.0336,0.036
5.567000,0.0441,-0.0271,-0.0762,0.092
5.569000,-0.0060,-0.0505,-0.0534,0.074
5.569000,0.0060,-0.0227,0.0025,0.024
5.570000,0.0417,-0.0592,0.0069,0.073
5.573000,0.0235,-0.0397,-0.0161,0.049
5.578000,0.0127,-0.0060,-0.0389,0.041
5.583000,0.0221,-0.0320,-0.0473,0.061
5.605000,0.0433,-0.0364,-0.0176,0.059
5.607000,0.0383,-0.0051,-0.0569,0.069
5.607000,0.0476,-0.0204,-0.0151,0.054
5.608000,0.0450,-0.0106,-0.0211,0.051
5.610000,0.0340,-0.0413,-0.0507,0.074
5.613000,0.0410,-0.0088,-0.0659,0.078
5.623000,0.0503,0.0057,-0.1200,0.130
5.625000,0.0560,0.0129,-0.0681,0.089
5.628000,0.0413,0.0069,-0.0890,0.098
5.637000,0.0328,0.0153,-0.1038,0.110
5.640000,0.0669,0.0225,-0.0983,0.121
5.643000,0.0652,-0.0013,-0.0704,0.096
5.649000,0.0336,-0.0095,-0.0878,0.094
5.664000,0.0320,-0.0306,-0.0979,0.107
5.665000,0.0424,0.0114,-0.0734,0.086
5.666000,0.0278,-0.0040,-0.0419,0.050
5.672000,0.0417,-0.0311,-0.0700,0.087
5.676000,0.0354,-0.0436,-0.0039,0.056
5.679000,0.0304,-0.0644,-0.0083,0.072
5.694000,0.0409,-0.0387,-0.0317,0.065
5.695000,0.0334,-0.0750,-0.0156,0.084
5.695000,0.0499,-0.0516,-0.0495,0.087
5.699000,0.0390,-0.0474,-0.0725,0.095
5.704000,0.0566,-0.0599,-0.1096,0.137
5.708000,0.0706,-0.0557,-0.0708,0.114
5.714000,0.0631,-0.0266,-0.0621,0.092
5.719000,0.0472,-0.0192,-0.0999,0.112
5.724000,0.0624,-0.0534,-0.0911,0.123
5.730000,0.0858,0.0183,-0.1076,0.139
5.735000,0.0640,0.0027,-0.0824,0.104
5.740000,0.0387,-0.0199,-0.0991,0.108
5.745000,0.0291,-0.0292,-0.0980,0.106
5.750000,-0.0007,-0.0183,-0.1467,0.148
5.755000,0.0280,-0.0444,-0.1014,0.114
5.760000,-0.0017,0.0022,-0.0851,0.085
5.765000,0.0246,0.0163,-0.0953,0.100
5.783000,0.0150,-0.0148,-0.0245,0.032
5.784000,0.0187,0.0043,0.0779,0.080
5.785000,0.0235,-0.0171,0.0982,0.102
5.785000,0.0498,-0.0715,0.1080,0.139
5.790000,0.0629,-0.0755,0.0871,0.131
5.795000,0.0509,-0.1127,0.0916,0.154
5.818000,0.0413,-0.0925,0.0296,0.106
5.819000,0.0567,-0.0749,-0.0295,0.098
5.819000,0.1004,-0.0907,-0.1238,0.183
5.820000,0.0879,-0.0767,-0.2010,0.232
5.821000,0.0743,-0.0439,-0.2112,0.228
5.826000,0.0548,0.0017,-0.1931,0.201
5.831000,0.0271,0.0208,-0.2335,0.236
5.837000,0.0235,0.0432,-0.2629,0.267
5.841000,0.0542,0.0595,-0.2137,0.228
5.846000,0.0573,0.0294,-0.1591,0.172
5.868000,0.0572,-0.0089,-0.1195,0.133
5.874000,0.0563,-0.0339,-0.0281,0.071
5.874000,0.0471,-0.0481,0.0280,0.073
5.875000,0.0430,-0.0598,0.0406,0.084
5.877000,0.0533,-0.1036,0.0769,0.140
5.877000,0.0220,-0.1066,0.0794,0.135
5.883000,0.0302,-0.1014,0.1460,0.180
5.898000,-0.0044,-0.1246,0.1396,0.187
5.899000,0.0181,-0.0931,0.0907,0.131
5.900000,0.0213,-0.0368,0.0766,0.088
5.911000,0.0339,-0.0581,0.0284,0.073
5.912000,0.0545,-0.0294,0.0183,0.065
5.913000,0.0559,-0.0412,-0.0782,0.105
5.918000,0.0533,0.0147,-0.1480,0.158
5.931000,0.0770,-0.0094,-0.1306,0.152
5.933000,0.0388,-0.0345,-0.1599,0.168
5.933000,-0.0062,0.0142,-0.1581,0.159
5.943000,0.0204,0.0126,-0.1744,0.176
5.944000,0.0172,0.0050,-0.1584,0.159
5.947000,0.0248,0.0082,-0.1401,0.143
5.952000,0.0360,-0.0148,-0.0828,0.091
5.957000,0.0282,-0.0138,-0.0460,0.056
5.962000,0.0360,-0.0164,-0.0426,0.058
5.967000,0.0283,-0.0320,-0.0130,0.045
5.984000,0.0431,-0.0368,-0.0049,0.057
5.985000,0.0162,-0.0332,-0.0124,0.039
5.986000,0.0276,-0.0391,0.0148,0.050
5.988000,0.0267,-0.0425,0.0418,0.065
5.993000,0.0244,-0.0435,0.0426,0.066
5.998000,0.0613,-0.0646,0.0185,0.091
6.017000,0.0741,-0.0724,0.0339,0.109
6.018000,0.0831,-0.0565,-0.0043,0.101
6.019000,0.0554,-0.0489,0.0042,0.074
6.019000,0.0752,-0.0545,-0.0384,0.101
6.023000,0.0771,-0.0185,-0.0878,0.118
6.028000,0.0693,-0.0421,-0.0929,0.123
6.033000,0.0830,-0.0063,-0.1161,0.143
6.039000,0.0552,-0.0028,-0.1369,0.148
6.043000,0.0620,-0.0232,-0.1174,0.135
6.049000,0.0842,0.0171,-0.1351,0.160
6.053000,0.0788,-0.0189,-0.1232,0.147
6.059000,0.0713,0.0177,-0.1211,0.142
6.064000,0.0439,0.0171,-0.1214,0.130
6.083000,0.0700,0.0023,-0.0839,0.109
6.084000,0.0627,-0.0064,-0.0157,0.065
6.085000,0.0140,-0.0222,-0.0075,0.027
6.086000,0.0037,-0.0782,-0.0030,0.078
6.090000,-0.0029,-0.0602,0.0242,0.065
6.094000,0.0239,-0.0257,-0.0033,0.035
6.099000,0.0050,-0.0448,0.0040,0.045
6.115000,0.0029,-0.0103,0.0350,0.037
6.116000,-0.0004,0.0014,0.0066,0.007
6.117000,0.0033,-0.0119,0.0091,0.015
6.129000,0.0341,-0.0382,0.0105,0.052
6.130000,0.0492,-0.0512,0.0379,0.080
6.131000,0.0653,-0.0486,0.0187,0.084
6.143000,0.0256,-0.0698,0.0092,0.075
6.144000,0.0252,-0.0789,0.0355,0.090
6.145000,-0.0130,-0.0560,-0.0132,0.059
6.150000,-0.0294,-0.0735,0.0121,0.080
6.154000,-0.0232,-0.0458,-0.0042,0.052
6.160000,-0.0148,-0.0041,-0.0405,0.043
6.165000,0.0197,-0.0256,-0.0208,0.038
6.170000,-0.0173,-0.0316,-0.0299,0.047
6.175000,0.0173,0.0005,-0.0782,0.080
6.181000,0.0206,0.0085,-0.0419,0.047
6.187000,0.0287,0.0034,-0.0417,0.051
6.190000,0.0177,0.0150,-0.0498,0.055
6.196000,0.0435,0.0086,-0.0387,0.059
6.201000,0.0455,-0.0214,-0.0373,0.063
6.218000,0.0439,-0.0393,-0.0262,0.065
6.220000,0.0209,0.0190,-0.0519,0.059
6.220000,0.0136,-0.0087,-0.0537,0.056
6.225000,0.0181,-0.0101,-0.0272,0.034
6.226000,0.0393,-0.0008,0.0015,0.039
6.230000,0.0282,0.0309,-0.0105,0.043
6.255000,-0.0149,0.0435,-0.0033,0.046
6.256000,0.0042,0.0487,0.0180,0.052
6.257000,0.0053,0.0302,0.0153,0.034
6.257000,-0.0208,0.0202,0.0353,0.046
6.258000,-0.0041,0.0268,0.0479,0.055
6.261000,-0.0027,0.0061,0.0415,0.042
6.266000,-0.0192,0.0105,0.0494,0.054
6.272000,0.0023,0.0160,0.0014,0.016
6.276000,-0.0084,-0.0057,0.0097,0.014
6.282000,-0.0059,-0.0107,0.0476,0.049
6.300000,-0.0439,-0.0049,0.0403,0.060
6.301000,-0.0377,0.0091,0.0282,0.048
6.302000,-0.0221,0.0254,0.0447,0.056
6.303000,-0.0220,-0.0154,-0.0362,0.045
6.329000,0.0135,-0.0273,-0.0251,0.039
6.330000,0.0036,-0.0083,-0.0235,0.025
6.330000,-0.0039,-0.0108,-0.0018,0.012
6.331000,-0.0149,-0.0382,-0.0099,0.042
6.331000,-0.0436,-0.0250,-0.0440,0.067
6.332000,0.0134,-0.0249,0.0099,0.030
6.342000,-0.0001,-0.0380,0.0303,0.049
6.343000,-0.0336,-0.0259,-0.0017,0.042
6.347000,-0.0181,-0.0402,-0.0050,0.044
6.355000,-0.0169,-0.0258,0.0120,0.033
6.358000,-0.0158,0.0052,0.0076,0.018
6.363000,-0.0006,-0.0069,0.0151,0.017
6.367000,0.0169,-0.0106,0.0011,0.020
6.372000,0.0190,0.0060,-0.0045,0.020
6.378000,0.0140,-0.0073,0.0279,0.032
6.383000,0.0173,-0.0466,0.0232,0.055
6.389000,0.0134,-0.0168,0.0185,0.028
6.393000,0.0120,-0.0002,-0.0325,0.035
6.398000,0.0451,0.0197,-0.0119,0.051
6.419000,0.0161,0.0098,0.0310,0.036
6.420000,-0.0008,0.0273,-0.0201,0.034
6.420000,0.0395,0.0233,-0.0151,0.048
6.421000,0.0203,0.0133,-0.0421,0.049
6.424000,-0.0024,0.0059,-0.0047,0.008
6.428000,-0.0131,-0.0241,-0.0271,0.039
6.433000,0.0439,-0.0087,-0.0220,0.050
6.450000,0.0400,-0.0054,-0.0277,0.049
6.451000,0.0338,0.0336,-0.0085,0.048
6.452000,0.0359,0.0092,0.0210,0.043
6.465000,-0.0011,0.0171,-0.0245,0.030
6.466000,-0.0247,0.0119,-0.0066,0.028
6.467000,-0.0006,0.0055,0.0205,0.021
6.470000,0.0270,0.0419,-0.0036,0.050
6.480000,-0.0109,-0.0206,-0.0085,0.025
6.481000,-0.0259,-0.0421,-0.0181,0.053
6.484000,0.0077,-0.0184,0.0271,0.034
6.492000,0.0056,-0.0162,0.0196,0.026
6.494000,-0.0249,-0.0034,0.0002,0.025
6.499000,-0.0114,-0.0014,0.0166,0.020
6.505000,0.0033,-0.0267,0.0008,0.027
6.509000,-0.0487,0.0183,-0.0185,0.055
6.514000,-0.0373,0.0237,-0.0079,0.045
6.535000,-0.0403,0.0160,-0.0473,0.064
6.537000,-0.0113,0.0547,-0.0401,0.069
6.537000,-0.0132,0.0265,-0.0165,0.034
6.538000,-0.0104,0.0092,-0.0297,0.033
6.540000,-0.0324,-0.0126,-0.0417,0.054
6.545000,-0.0127,0.0025,-0.0383,0.040
6.550000,-0.0135,-0.0004,0.0078,0.016
6.571000,0.0012,-0.0174,-0.0033,0.018
6.572000,0.0112,-0.0058,0.0344,0.037
6.573000,0.0069,-0.0204,0.0469,0.052
6.574000,0.0016,-0.0076,0.0297,0.031
6.574000,0.0118,-0.0377,0.0367,0.054
6.580000,-0.0065,-0.0306,0.0390,0.050
6.585000,0.0121,-0.0082,0.0281,0.032
6.590000,0.0259,-0.0287,-0.0184,0.043
6.595000,0.0347,-0.0099,-0.0312,0.048
6.600000,0.0481,0.0135,-0.0132,0.052
6.605000,0.0045,-0.0012,-0.0310,0.031
6.610000,0.0158,0.0102,-0.0166,0.025
6.616000,0.0068,0.0370,-0.0178,0.042
6.621000,-0.0413,0.0399,-0.0403,0.070
6.625000,-0.0012,0.0225,-0.0770,0.080
6.630000,-0.0124,0.0373,-0.1003,0.108
6.634000,-0.0248,0.0472,-0.0773,0.094
6.651000,-0.0359,0.0238,-0.0546,0.070
6.654000,-0.0149,-0.0030,-0.0736,0.075
6.655000,-0.0311,0.0002,-0.0724,0.079
6.657000,-0.0245,-0.0204,-0.0023,0.032
6.661000,0.0072,-0.0077,0.0971,0.098
6.666000,-0.0088,-0.0483,0.1558,0.163
6.686000,-0.0329,-0.0114,0.1221,0.127
6.687000,-0.0034,-0.0507,0.1044,0.116
6.688000,-0.0193,-0.0872,0.1169,0.147
6.689000,-0.0187,-0.0984,0.1329,0.166
6.691000,-0.0122,-0.1048,0.0158,0.107
6.696000,0.0096,-0.0850,-0.0149,0.087
6.701000,0.0061,-0.0440,-0.0525,0.069
6.707000,0.0192,-0.0543,-0.0639,0.086
6.711000,0.0012,-0.0231,-0.1110,0.113
6.716000,-0.0025,0.0375,-0.1116,0.118
6.735000,-0.0122,0.0277,-0.1478,0.151
6.736000,-0.0124,0.0404,-0.1732,0.178
6.737000,0.0089,0.0387,-0.1356,0.141
6.738000,0.0385,0.0002,-0.1127,0.119
6.742000,0.0313,-0.0322,-0.0204,0.049
6.746000,0.0313,-0.0275,0.0271,0.050
6.751000,0.0351,-0.0609,0.0040,0.070
6.771000,0.0213,-0.0704,0.0190,0.076
6.773000,-0.0041,-0.0929,0.0801,0.123
6.773000,0.0015,-0.0962,0.0694,0.119
6.774000,-0.0392,0.0014,0.0908,0.099
6.777000,-0.0572,0.0009,0.0849,0.102
6.782000,-0.0442,-0.0019,0.0661,0.080
6.789000,-0.0446,0.0250,0.0250,0.057
6.792000,-0.0215,0.0340,-0.0276,0.049
6.797000,-0.0309,0.0358,-0.0380,0.061
6.803000,-0.0296,0.0329,-0.0769,0.089
6.808000,-0.0381,0.0467,-0.0999,0.117
6.812000,-0.0147,0.0593,-0.0895,0.108
6.817000,-0.0236,0.0384,-0.1007,0.110
6.822000,-0.0087,0.0332,-0.1239,0.129
6.827000,0.0038,0.0339,-0.0958,0.102
6.833000,-0.0146,0.0500,-0.1071,0.119
6.863000,-0.0183,0.0019,-0.1113,0.113
6.864000,0.0124,-0.0233,-0.0867,0.091
6.865000,-0.0022,-0.0341,-0.0374,0.051
6.866000,-0.0356,-0.0091,-0.0087,0.038
6.867000,-0.0390,-0.0270,0.0271,0.055
6.867000,-0.0067,-0.0235,0.0318,0.040
6.870000,-0.0258,-0.0069,0.0104,0.029
6.876000,-0.0401,-0.0081,0.0095,0.042
6.878000,-0.0117,-0.0331,0.0002,0.035
6.883000,-0.0158,0.0002,0.0182,0.024
6.900000,0.0028,-0.0248,-0.0103,0.027
6.901000,-0.0239,-0.0330,-0.0207,0.046
6.902000,0.0124,-0.0352,-0.0189,0.042
6.925000,0.0011,0.0029,-0.0553,0.055
6.926000,0.0100,-0.0019,-0.0627,0.064
6.927000,-0.0013,-0.0269,-0.0631,0.069
6.927000,0.0101,-0.0043,-0.0813,0.082
6.928000,0.0132,0.0193,-0.0947,0.098
6.929000,0.0138,-0.0012,-0.0843,0.085
6.934000,-0.0045,-0.0144,-0.0754,0.077
6.939000,0.0058,0.0092,-0.0809,0.082
6.944000,-0.0041,0.0290,-0.0925,0.097
6.949000,0.0017,0.0416,-0.0802,0.090
6.967000,-0.0200,0.0516,-0.0775,0.095
6.968000,0.0192,0.0177,-0.0617,0.067
6.968000,0.0070,0.0018,-0.0211,0.022
6.969000,-0.0120,-0.0234,0.0169,0.031
6.991000,-0.0073,-0.0318,0.0323,0.046
6.992000,-0.0087,-0.0258,0.0098,0.029
6.993000,-0.0254,-0.0114,-0.0124,0.031
6.995000,-0.0137,-0.0209,-0.0046,0.025
6.995000,-0.0212,-0.0078,-0.0182,0.029
7.000000,-0.0142,0.0111,0.0120,0.022
7.006000,-0.0027,-0.0045,-0.0090,0.010
7.010000,0.0087,-0.0247,-0.0075,0.027
7.015000,0.0378,-0.0330,0.0238,0.056
7.021000,0.0109,-0.0732,0.0087,0.074
7.025000,0.0092,-0.0513,-0.0195,0.056
7.030000,0.0015,-0.0438,-0.0213,0.049
7.035000,-0.0131,-0.0175,-0.0266,0.034
7.040000,-0.0074,-0.0008,-0.0485,0.049
7.045000,0.0055,-0.0022,-0.0560,0.056
7.050000,0.0208,0.0261,-0.0861,0.092
7.067000,0.0206,0.0091,-0.0602,0.064
7.069000,0.0335,0.0290,-0.0311,0.054
7.069000,0.0296,0.0297,-0.0474,0.063
7.070000,0.0197,0.0078,-0.0434,0.048
7.091000,0.0170,0.0194,-0.0582,0.064
7.092000,0.0572,-0.0023,-0.0599,0.083
7.093000,0.0198,-0.0144,-0.0189,0.031
7.093000,0.0243,-0.0192,-0.0422,0.052
7.096000,0.0253,0.0057,-0.0629,0.068
7.101000,0.0013,-0.0231,-0.0596,0.064
7.106000,0.0345,-0.0373,-0.0683,0.085
7.111000,0.0093,0.0078,-0.0925,0.093
7.116000,0.0116,-0.0162,-0.0666,0.070
7.123000,0.0010,-0.0164,-0.0316,0.036
7.126000,0.0119,-0.0070,-0.0073,0.016
7.131000,0.0358,-0.0024,0.0180,0.040
7.136000,0.0001,-0.0051,-0.0152,0.016
7.141000,-0.0114,-0.0101,-0.0468,0.049
7.147000,-0.0108,-0.0447,-0.0224,0.051
7.152000,0.0255,-0.0221,0.0138,0.036
7.158000,-0.0039,-0.0507,-0.0239,0.056
7.162000,0.0131,-0.0482,-0.0186,0.053
7.167000,0.0228,-0.0337,-0.0227,0.047
7.188000,0.0516,-0.0207,-0.0647,0.085
7.189000,0.0397,-0.0207,-0.0434,0.062
7.190000,0.0172,-0.0244,-0.0152,0.034
7.191000,0.0032,-0.0292,0.0068,0.030
7.193000,-0.0013,-0.0184,0.0098,0.021
7.197000,-0.0306,-0.0434,0.0021,0.053
7.202000,-0.0004,-0.0385,0.0124,0.040
7.224000,0.0106,-0.0098,0.0073,0.016
7.225000,0.0085,-0.0135,-0.0404,0.043
7.226000,0.0050,-0.0324,-0.0104,0.034
7.227000,-0.0007,-0.0251,-0.0233,0.034
7.227000,0.0162,0.0130,-0.0396,0.045
7.233000,0.0389,0.0033,-0.0737,0.083
7.237000,0.0341,-0.0135,-0.0515,0.063
7.242000,0.0363,0.0008,-0.0770,0.085
7.248000,0.0742,0.0138,-0.0701,0.103
7.253000,0.0571,0.0208,-0.0919,0.110
7.257000,0.0640,0.0075,-0.0768,0.100
7.263000,0.0768,0.0097,-0.0500,0.092
7.268000,0.0895,0.0178,-0.1054,0.139
7.286000,0.0807,0.0152,-0.0796,0.114
7.287000,0.0921,-0.0100,-0.0480,0.104
7.288000,0.0703,-0.0077,-0.0537,0.089
7.288000,0.0700,-0.0089,-0.0700,0.099
7.318000,0.0852,-0.0114,-0.0576,0.103
7.319000,0.0706,-0.0209,-0.0713,0.103
7.320000,0.0789,-0.0007,-0.0766,0.110
7.320000,0.0999,0.0158,-0.0331,0.106
7.321000,0.1207,0.0121,-0.0336,0.126
7.321000,0.1331,0.0274,-0.0031,0.136
7.333000,0.1334,-0.0072,-0.0392,0.139
7.335000,0.1646,0.0059,-0.0749,0.181
7.335000,0.1908,-0.0096,-0.0511,0.198
7.348000,0.2003,0.0226,-0.0868,0.219
7.349000,0.1621,0.0045,-0.1602,0.228
7.350000,0.1682,-0.0288,-0.1763,0.245
7.354000,0.1967,-0.0345,-0.1567,0.254
7.359000,0.2238,-0.0450,-0.1540,0.275
7.364000,0.2270,-0.0613,-0.1740,0.292
7.369000,0.2218,-0.0847,-0.2033,0.313
7.374000,0.2202,-0.0544,-0.2266,0.321
7.379000,0.2589,-0.0671,-0.1999,0.334
7.384000,0.2641,-0.0762,-0.1925,0.336
7.403000,0.2704,-0.0638,-0.2018,0.343
7.404000,0.3097,-0.1109,-0.1968,0.383
7.404000,0.3096,-0.1030,-0.1149,0.346
7.434000,0.3379,-0.1201,-0.1167,0.377
7.435000,0.3507,-0.1085,-0.0936,0.379
7.436000,0.3467,-0.1315,-0.0657,0.377
7.436000,0.3889,-0.1257,-0.0535,0.412
7.437000,0.3787,-0.1390,-0.0675,0.409
7.437000,0.4196,-0.0763,-0.0578,0.430
7.438000,0.4627,-0.1068,-0.0591,0.479
7.448000,0.4960,-0.1405,-0.0842,0.522
7.449000,0.4983,-0.1337,-0.1139,0.528
7.450000,0.5602,-0.1947,-0.1448,0.610
7.461000,0.5315,-0.2173,-0.1591,0.596
7.463000,0.5199,-0.2528,-0.1534,0.598
7.465000,0.5239,-0.2454,-0.1954,0.611
7.470000,0.5422,-0.1977,-0.2041,0.612
7.475000,0.5664,-0.2502,-0.1952,0.649
7.480000,0.5739,-0.2442,-0.2173,0.660
7.485000,0.6028,-0.2276,-0.2382,0.687
7.501000,0.5967,-0.2221,-0.2691,0.691
7.502000,0.5930,-0.2096,-0.2215,0.667
7.502000,0.6289,-0.2163,-0.1743,0.687
7.506000,0.6503,-0.2277,-0.1392,0.703
7.530000,0.6634,-0.2416,-0.0743,0.710
7.531000,0.6778,-0.2853,-0.0347,0.736
7.532000,0.6527,-0.2656,0.0125,0.705
7.532000,0.6758,-0.2854,0.0718,0.737
7.533000,0.6784,-0.3385,0.1109,0.766
7.536000,0.6345,-0.3366,0.1195,0.728
7.542000,0.6602,-0.3190,0.1008,0.740
7.546000,0.6871,-0.3314,0.0691,0.766
7.551000,0.7043,-0.3509,0.0771,0.791
7.556000,0.7226,-0.3081,0.0387,0.786
7.561000,0.6869,-0.2713,0.0279,0.739
7.566000,0.7170,-0.2740,0.0172,0.768
7.573000,0.7436,-0.2229,0.0149,0.776
7.576000,0.7737,-0.2066,-0.0233,0.801
7.581000,0.7652,-0.1639,-0.0506,0.784
7.586000,0.7663,-0.1583,-0.0279,0.783
7.592000,0.7555,-0.1276,-0.0792,0.770
7.597000,0.7542,-0.0827,-0.0839,0.763
7.602000,0.7765,-0.0401,-0.0936,0.783
7.620000,0.7843,-0.0418,-0.1021,0.792
7.621000,0.7764,-0.0255,-0.1224,0.786
7.622000,0.8102,0.0015,-0.0722,0.813
7.623000,0.8213,-0.0216,0.0103,0.822
7.654000,0.7967,-0.0373,0.1008,0.804
7.655000,0.8103,-0.0955,0.1817,0.836
7.656000,0.8204,-0.1151,0.3150,0.886
7.657000,0.7981,-0.1651,0.3976,0.907
7.658000,0.8139,-0.1922,0.4046,0.929
7.659000,0.8248,-0.2382,0.4151,0.954
7.659000,0.8166,-0.3019,0.3607,0.942
7.663000,0.8296,-0.2876,0.2329,0.908
7.668000,0.8305,-0.3199,0.1571,0.904
7.674000,0.8406,-0.3377,0.0219,0.906
7.678000,0.8397,-0.3338,-0.0294,0.904
7.683000,0.8517,-0.2905,-0.0402,0.901
7.688000,0.8540,-0.2967,-0.0522,0.906
7.694000,0.8610,-0.3147,-0.0133,0.917
7.698000,0.8334,-0.2614,-0.0023,0.873
7.703000,0.8063,-0.2513,0.0392,0.845
7.720000,0.8389,-0.2497,0.0541,0.877
7.722000,0.8239,-0.2078,0.0627,0.852
7.722000,0.7797,-0.2351,0.0987,0.820
7.747000,0.7265,-0.2385,0.0784,0.769
7.748000,0.7213,-0.2241,0.0976,0.762
7.749000,0.6983,-0.2335,0.1214,0.746
7.749000,0.6184,-0.2191,0.0752,0.660
7.750000,0.5687,-0.2320,0.0460,0.616
7.750000,0.5538,-0.2401,0.0053,0.604
7.753000,0.5080,-0.2646,0.0159,0.573
7.759000,0.4529,-0.2652,-0.0484,0.527
7.764000,0.3707,-0.3156,-0.0742,0.492
7.769000,0.3233,-0.3715,-0.0798,0.499
7.774000,0.2690,-0.4115,-0.0927,0.500
7.779000,0.2470,-0.5023,-0.0964,0.568
7.784000,0.2159,-0.5534,-0.1466,0.612
7.791000,0.1453,-0.5556,-0.2081,0.611
7.794000,0.1046,-0.5423,-0.1916,0.585
7.799000,0.0857,-0.5377,-0.1833,0.575
7.804000,0.0502,-0.4844,-0.1857,0.521
7.810000,0.0387,-0.4492,-0.1639,0.480
7.814000,0.0119,-0.4501,-0.1396,0.471
7.819000,-0.0445,-0.3891,-0.1471,0.418
7.844000,-0.0780,-0.3642,-0.1446,0.400
7.846000,-0.1173,-0.3119,-0.1859,0.382
7.846000,-0.1828,-0.2479,-0.1977,0.366
7.847000,-0.2264,-0.2068,-0.1680,0.350
7.848000,-0.2604,-0.1180,-0.1612,0.328
7.850000,-0.2860,-0.0077,-0.1880,0.342
7.854000,-0.3198,0.1407,-0.2073,0.406
7.882000,-0.3739,0.2483,-0.2668,0.522
7.883000,-0.3898,0.4193,-0.2733,0.634
7.884000,-0.3773,0.5125,-0.3059,0.706
7.885000,-0.4011,0.6033,-0.3460,0.803
7.885000,-0.3880,0.6846,-0.4120,0.888
7.886000,-0.4147,0.7743,-0.4632,0.993
7.897000,-0.4165,0.8210,-0.5105,1.053
7.898000,-0.4196,0.8257,-0.5183,1.061
7.900000,-0.4301,0.7456,-0.5467,1.020
7.905000,-0.4201,0.6594,-0.5313,0.945
7.921000,-0.4341,0.5315,-0.5274,0.865
7.923000,-0.4323,0.3974,-0.5462,0.802
7.923000,-0.4674,0.1999,-0.5626,0.758
7.926000,-0.5013,-0.0215,-0.5829,0.769
7.930000,-0.4479,-0.1233,-0.4755,0.665
7.936000,-0.3934,-0.1810,-0.4038,0.592
7.941000,-0.3527,-0.2351,-0.3723,0.564
7.946000,-0.3737,-0.3157,-0.4032,0.634
7.951000,-0.3930,-0.3688,-0.3662,0.652
7.968000,-0.4524,-0.4242,-0.4437,0.763
7.969000,-0.5064,-0.4749,-0.5496,0.885
7.969000,-0.5493,-0.4670,-0.6065,0.942
7.971000,-0.6027,-0.4651,-0.6610,1.008
7.989000,-0.6783,-0.4143,-0.7422,1.087
7.990000,-0.7821,-0.2718,-0.7951,1.148
7.990000,-0.8581,-0.1174,-0.8494,1.213
7.991000,-0.9471,-0.0040,-0.9168,1.318
7.996000,-1.0062,0.1357,-1.0177,1.438
8.000000,-1.0067,0.3326,-1.1039,1.531
8.005000,-1.0625,0.4469,-1.1887,1.656
8.011000,-1.0276,0.5492,-1.2194,1.687
8.016000,-1.0099,0.6550,-1.2917,1.766
8.021000,-0.9828,0.7728,-1.3012,1.805
8.026000,-0.8973,0.8643,-1.2766,1.784
8.031000,-0.8169,0.9403,-1.3051,1.804
8.037000,-0.7894,0.9351,-1.3172,1.798
8.053000,-0.6441,0.9085,-1.2941,1.707
8.054000,-0.5372,0.8666,-1.2146,1.586
8.055000,-0.4782,0.7446,-1.1755,1.471
8.080000,-0.4035,0.5892,-1.2295,1.422
8.082000,-0.3628,0.4147,-1.1822,1.304
8.082000,-0.3538,0.2570,-1.1367,1.218
8.083000,-0.3300,0.1183,-1.0599,1.116
8.083000,-0.3032,-0.0694,-0.9769,1.025
8.084000,-0.2520,-0.2332,-0.9523,1.012
8.087000,-0.2206,-0.3636,-0.9118,1.006
8.093000,-0.2388,-0.4904,-0.8219,0.986
8.097000,-0.2660,-0.5802,-0.7939,1.019
8.102000,-0.2485,-0.6473,-0.8024,1.060
8.108000,-0.2700,-0.7169,-0.8810,1.167
8.112000,-0.3155,-0.7637,-0.9353,1.248
8.117000,-0.2881,-0.7472,-0.8276,1.152
8.123000,-0.3119,-0.7451,-0.7250,1.085
8.127000,-0.3631,-0.7369,-0.7869,1.138
8.133000,-0.4061,-0.6699,-0.8432,1.151
8.138000,-0.4076,-0.6304,-0.8823,1.158
8.143000,-0.4405,-0.6111,-0.9125,1.183
8.148000,-0.4413,-0.5606,-0.9576,1.194
8.153000,-0.4696,-0.5400,-1.0022,1.231
8.168000,-0.5360,-0.5433,-1.1014,1.340
8.169000,-0.5662,-0.5239,-1.1800,1.410
8.170000,-0.6035,-0.4996,-1.2046,1.437
8.190000,-0.6058,-0.4684,-1.2009,1.424
8.192000,-0.6379,-0.4873,-1.2618,1.495
8.193000,-0.6735,-0.4848,-1.2787,1.524
8.193000,-0.6876,-0.4356,-1.2409,1.484
8.194000,-0.6696,-0.4450,-1.2151,1.457
8.198000,-0.6460,-0.4281,-1.2374,1.460
8.204000,-0.6286,-0.4756,-1.2122,1.446
8.208000,-0.6010,-0.4358,-1.2110,1.420
8.214000,-0.5643,-0.4150,-1.2232,1.410
8.219000,-0.5245,-0.4624,-1.1949,1.384
8.225000,-0.5186,-0.4462,-1.1452,1.334
8.229000,-0.5359,-0.4312,-1.1809,1.367
8.234000,-0.5117,-0.4197,-1.1560,1.332
8.239000,-0.5060,-0.4142,-1.1001,1.280
8.245000,-0.4791,-0.4193,-1.0673,1.243
8.249000,-0.4384,-0.4123,-1.0403,1.202
8.254000,-0.4672,-0.3766,-1.0767,1.233
8.269000,-0.4254,-0.3553,-1.1143,1.245
8.270000,-0.3886,-0.3208,-1.1447,1.251
8.271000,-0.4154,-0.3114,-1.1412,1.254
8.291000,-0.3825,-0.3390,-1.2262,1.328
8.292000,-0.3595,-0.3354,-1.3458,1.433
8.293000,-0.3654,-0.3401,-1.3276,1.418
8.293000,-0.3059,-0.3315,-1.3444,1.418
8.294000,-0.3055,-0.3170,-1.3632,1.433
8.300000,-0.2935,-0.2999,-1.3615,1.425
8.305000,-0.2582,-0.3006,-1.3559,1.413
8.310000,-0.2021,-0.3047,-1.3680,1.416
8.315000,-0.1706,-0.3099,-1.3440,1.390
8.320000,-0.1514,-0.2696,-1.3461,1.381
8.325000,-0.1039,-0.2232,-1.3553,1.377
8.330000,-0.0991,-0.2233,-1.3104,1.333
8.335000,-0.0781,-0.1767,-1.2677,1.282
8.342000,-0.0279,-0.1444,-1.2763,1.285
8.345000,-0.0055,-0.1633,-1.2904,1.301
8.350000,0.0081,-0.1069,-1.3028,1.307
8.356000,-0.0321,-0.0433,-1.3567,1.358
8.361000,-0.0221,0.0239,-1.3847,1.385
8.366000,-0.0444,0.1030,-1.4699,1.474
8.371000,-0.0536,0.1785,-1.5077,1.519
8.390000,-0.1011,0.3018,-1.5629,1.595
8.392000,-0.1344,0.3676,-1.5888,1.636
8.393000,-0.1355,0.4214,-1.7102,1.767
8.394000,-0.1822,0.4716,-1.8180,1.887
8.397000,-0.2136,0.4896,-1.8908,1.965
8.401000,-0.2536,0.4921,-1.9347,2.012
8.406000,-0.2962,0.4982,-2.0131,2.095
8.426000,-0.3201,0.4840,-2.0137,2.096
8.427000,-0.2645,0.4701,-1.9473,2.021
8.428000,-0.2480,0.4730,-1.9466,2.019
8.428000,-0.1834,0.4666,-1.9312,1.995
8.432000,-0.1219,0.4352,-1.8821,1.936
8.436000,-0.0453,0.4387,-1.9153,1.965
8.443000,0.0891,0.4005,-1.8834,1.928
8.447000,0.1485,0.4151,-1.9324,1.982
8.452000,0.2000,0.4202,-2.0072,2.060
8.457000,0.3179,0.3909,-2.0288,2.090
8.463000,0.4102,0.4155,-2.1394,2.218
8.467000,0.4564,0.4427,-2.2420,2.330
8.472000,0.4759,0.4544,-2.2827,2.376
8.490000,0.5210,0.4304,-2.3164,2.413
8.493000,0.4818,0.4270,-2.3584,2.445
8.494000,0.5159,0.5040,-2.3704,2.478
8.496000,0.4844,0.6733,-2.2533,2.401
8.497000,0.5124,0.9635,-1.9950,2.274
8.502000,0.6620,1.2981,-1.5126,2.100
8.507000,0.8290,1.8074,-1.0211,2.235
8.523000,0.8938,2.3873,-0.6381,2.628
8.524000,0.9581,2.7710,-0.2923,2.946
8.526000,1.0331,2.8869,-0.1383,3.069
8.529000,1.0780,2.8128,-0.0448,3.013
8.533000,1.0285,2.6752,0.0428,2.866
8.537000,0.9008,2.5481,0.1727,2.708
8.544000,0.6243,2.3907,0.2489,2.483
8.548000,0.2850,2.1770,0.2200,2.207
8.553000,0.0413,1.8844,0.1290,1.889
8.559000,-0.1671,1.5859,0.1124,1.599
8.563000,-0.3314,1.3257,0.0640,1.368
8.568000,-0.4449,1.0354,0.0531,1.128
8.573000,-0.5600,0.7950,0.1202,0.980
8.578000,-0.6620,0.6091,0.2981,0.948
8.583000,-0.7279,0.4444,0.3764,0.932
8.588000,-0.7653,0.2446,0.3767,0.887
8.607000,-0.7875,0.1176,0.2870,0.846
8.608000,-0.7841,-0.0156,0.1512,0.799
8.609000,-0.8127,-0.1165,0.0509,0.823
8.610000,-0.8324,-0.1492,-0.0127,0.846
8.614000,-0.8341,-0.1757,-0.0925,0.857
8.618000,-0.8135,-0.1566,-0.1091,0.836
8.623000,-0.8058,-0.2174,-0.0834,0.839
8.640000,-0.7517,-0.3374,0.1156,0.832
8.641000,-0.7028,-0.4929,0.3357,0.922
8.642000,-0.6490,-0.7423,0.5545,1.131
8.644000,-0.5681,-1.0475,0.8631,1.471
8.649000,-0.5115,-1.3091,1.0966,1.783
8.654000,-0.4598,-1.5285,1.3093,2.064
8.659000,-0.3528,-1.6555,1.5732,2.311
8.664000,-0.2751,-1.7060,1.7877,2.486
8.670000,-0.1820,-1.6011,1.9207,2.507
8.676000,-0.1320,-1.4105,2.1529,2.577
8.680000,-0.1502,-1.1773,2.3252,2.611
8.684000,-0.1006,-0.9003,2.4324,2.596
8.689000,-0.0359,-0.6788,2.4493,2.542
8.695000,-0.0293,-0.4864,2.4007,2.450
8.700000,0.0324,-0.3552,2.3000,2.327
8.705000,0.0764,-0.2493,2.2090,2.224
8.725000,0.1511,-0.1924,1.9573,1.972
8.727000,0.2271,-0.1332,1.6169,1.638
8.728000,0.2638,-0.0768,1.3938,1.421
8.728000,0.2673,0.0512,1.3019,1.330
8.730000,0.2492,0.1238,1.2847,1.314
8.735000,0.2836,0.2322,1.2922,1.343
8.740000,0.2656,0.3665,1.3653,1.438
8.761000,0.2564,0.4825,1.3849,1.489
8.762000,0.2199,0.5872,1.3599,1.498
8.763000,0.0694,0.7929,1.4497,1.654
8.764000,-0.1032,0.9885,1.5594,1.849
8.766000,-0.2809,1.1180,1.4386,1.844
8.771000,-0.4042,1.0681,1.0381,1.543
8.777000,-0.5161,1.1136,0.8779,1.509
8.780000,-0.6302,1.0814,0.7629,1.466
8.784000,-0.6999,0.9750,0.6523,1.366
8.789000,-0.6910,0.8330,0.5699,1.223
8.795000,-0.6642,0.7305,0.3758,1.056
8.800000,-0.6697,0.6113,0.2381,0.937
8.804000,-0.6631,0.4382,0.2410,0.831
8.834000,-0.6565,0.2413,0.2135,0.731
8.839000,-0.6416,0.0780,0.1685,0.668
8.840000,-0.6113,-0.1630,0.2377,0.676
8.845000,-0.5956,-0.4109,0.2810,0.776
8.846000,-0.5596,-0.5905,0.3215,0.875
8.847000,-0.5238,-0.7245,0.4616,1.006
8.847000,-0.4917,-0.9241,0.5345,1.175
8.848000,-0.4883,-1.0528,0.4752,1.254
8.864000,-0.4782,-1.1106,0.4922,1.306
8.865000,-0.4568,-1.1370,0.5283,1.334
8.866000,-0.4767,-1.1702,0.5287,1.370
8.866000,-0.4673,-1.1948,0.4910,1.374
8.870000,-0.4486,-1.1845,0.4219,1.335
8.879000,-0.4503,-1.1384,0.3653,1.278
8.880000,-0.4910,-1.0278,0.4274,1.217
8.886000,-0.5505,-0.9197,0.4586,1.166
8.890000,-0.5646,-0.8512,0.4295,1.108
8.897000,-0.5892,-0.7864,0.4272,1.071
8.901000,-0.5957,-0.6870,0.4611,1.020
8.906000,-0.6044,-0.6367,0.4479,0.986
8.912000,-0.5951,-0.5768,0.3243,0.890
8.916000,-0.5961,-0.5123,0.3696,0.869
8.921000,-0.5574,-0.4624,0.4387,0.847
8.938000,-0.4982,-0.4388,0.4804,0.819
8.939000,-0.3863,-0.4189,0.5488,0.791
8.939000,-0.3127,-0.4216,0.5712,0.776
8.941000,-0.2807,-0.4519,0.4734,0.712
8.964000,-0.2571,-0.4378,0.4491,0.678
8.965000,-0.2075,-0.3974,0.4333,0.623
8.966000,-0.0917,-0.3712,0.4281,0.574
8.966000,-0.0029,-0.3940,0.3941,0.557
8.967000,0.0926,-0.4728,0.2916,0.563
8.973000,0.1853,-0.5324,0.2032,0.599
8.978000,0.2858,-0.5656,0.1407,0.649
8.982000,0.3440,-0.5939,0.0790,0.691
8.989000,0.4080,-0.5337,0.0189,0.672
8.993000,0.4671,-0.5191,-0.0144,0.698
8.998000,0.5070,-0.5381,-0.0808,0.744
9.006000,0.5399,-0.5631,-0.1800,0.801
9.007000,0.5492,-0.5166,-0.2743,0.802
9.012000,0.5411,-0.4763,-0.3276,0.792
9.017000,0.4851,-0.4529,-0.3412,0.746
9.022000,0.4902,-0.5240,-0.4334,0.838
9.028000,0.4397,-0.5188,-0.4524,0.817
9.032000,0.3123,-0.4277,-0.3992,0.663
9.038000,0.1268,-0.3955,-0.4004,0.577
9.054000,-0.0113,-0.3263,-0.3410,0.472
9.055000,-0.0893,-0.2812,-0.3618,0.467
9.055000,-0.1397,-0.2302,-0.3365,0.431
9.059000,-0.0954,-0.1660,-0.3777,0.423
9.077000,-0.0630,-0.1210,-0.4611,0.481
9.078000,-0.0578,-0.0891,-0.4728,0.485
9.079000,0.0407,-0.0752,-0.5371,0.544
9.081000,0.1367,-0.0086,-0.5681,0.584
9.083000,0.2360,0.0425,-0.6018,0.648
9.088000,0.3694,0.1152,-0.6478,0.755
9.096000,0.4568,0.1928,-0.7131,0.869
9.107000,0.5496,0.2693,-0.7893,0.999
9.108000,0.6763,0.3471,-0.8147,1.114
9.109000,0.7794,0.4023,-0.8694,1.235
9.114000,0.8818,0.3942,-0.9571,1.360
9.118000,0.9742,0.4054,-1.0588,1.495
9.123000,1.0446,0.4082,-1.0828,1.559
9.128000,1.0993,0.4147,-1.0736,1.592
9.133000,1.1552,0.4102,-1.0803,1.634
9.138000,1.2066,0.4117,-1.0802,1.671
9.155000,1.2378,0.3629,-1.0900,1.689
9.155000,1.2407,0.3738,-1.0643,1.677
9.156000,1.2209,0.3273,-1.0387,1.636
9.161000,1.2325,0.2844,-0.9950,1.609
9.180000,1.2599,0.2451,-0.9837,1.617
9.181000,1.2740,0.1640,-0.9493,1.597
9.182000,1.3107,0.0771,-0.9327,1.611
9.182000,1.3374,-0.0073,-0.9303,1.629
9.185000,1.3915,-0.0938,-0.9172,1.669
9.190000,1.4180,-0.1886,-0.9124,1.697
9.195000,1.4634,-0.3096,-0.8430,1.717
9.199000,1.5243,-0.3921,-0.8056,1.768
9.205000,1.5313,-0.5068,-0.7881,1.795
9.211000,1.5337,-0.5662,-0.7533,1.800
9.215000,1.5495,-0.5551,-0.7022,1.790
9.220000,1.5224,-0.5021,-0.6993,1.749
9.225000,1.5040,-0.3989,-0.7621,1.733
9.230000,1.4868,-0.3052,-0.8751,1.752
9.235000,1.4257,-0.1925,-1.0145,1.760
9.240000,1.2896,-0.0201,-1.1921,1.756
9.245000,1.0891,0.2443,-1.2393,1.668
9.250000,0.8911,0.5790,-1.3404,1.711
9.256000,0.7311,1.1539,-1.4126,1.965
9.281000,0.6375,1.8528,-1.3307,2.369
9.282000,0.6097,2.5754,-1.2269,2.917
9.283000,0.5663,3.3755,-1.2847,3.656
9.284000,0.5747,4.1730,-1.4368,4.451
9.285000,0.5697,4.7562,-1.6042,5.052
9.288000,0.6419,4.9815,-1.5714,5.263
9.290000,0.8279,4.7895,-1.3307,5.039
9.318000,1.0229,4.1957,-1.0604,4.447
9.319000,1.1789,3.3447,-0.9157,3.663
9.321000,1.2142,2.5630,-0.7956,2.946
9.322000,1.1236,1.9328,-0.6665,2.333
9.323000,0.8904,1.5044,-0.4743,1.811
9.323000,0.5795,1.1044,-0.1659,1.258
9.332000,0.3388,0.7894,0.1155,0.867
9.333000,0.2398,0.4435,0.3352,0.605
9.337000,0.1830,0.1210,0.5589,0.600
9.342000,0.2892,-0.1101,0.8932,0.945
9.347000,0.4076,-0.3539,1.2859,1.395
9.352000,0.3990,-0.5493,1.4626,1.613
9.357000,0.3394,-0.7014,1.6127,1.791
9.362000,0.2760,-0.9381,1.6344,1.905
9.367000,0.1794,-1.1851,1.6161,2.012
9.372000,0.0245,-1.4115,1.5678,2.110
9.388000,-0.1167,-1.6474,1.5260,2.249
9.389000,-0.2282,-1.8044,1.5296,2.376
9.390000,-0.4692,-1.9305,1.5589,2.525
9.392000,-0.6834,-2.0508,1.6019,2.690
9.411000,-0.8744,-2.1867,1.6786,2.892
9.413000,-1.0880,-2.3430,1.7065,3.096
9.414000,-1.1699,-2.4959,1.8133,3.299
9.415000,-1.2375,-2.6738,1.9887,3.555
9.418000,-1.3466,-2.7285,2.1100,3.703
9.423000,-1.4072,-2.7380,2.3246,3.858
9.428000,-1.4217,-2.6256,2.5387,3.919
9.433000,-1.4831,-2.5087,2.6666,3.950
9.438000,-1.4877,-2.3238,2.7894,3.924
9.443000,-1.5761,-2.0327,2.8909,3.870
9.447000,-1.6531,-1.6809,2.8970,3.735
9.454000,-1.7063,-1.2706,2.8666,3.570
9.458000,-1.7289,-0.8713,2.7639,3.375
9.464000,-1.7759,-0.4745,2.6272,3.206
9.468000,-1.8409,-0.1100,2.4783,3.089
9.473000,-1.8426,0.2856,2.3685,3.014
9.489000,-1.8948,0.7602,2.2225,3.018
9.491000,-1.9543,1.1715,1.9933,3.027
9.491000,-2.0036,1.5711,1.7752,3.104
9.516000,-2.0591,1.8574,1.6074,3.205
9.517000,-2.0138,1.9972,1.5183,3.217
9.518000,-1.9167,2.0684,1.4067,3.151
9.519000,-1.7427,2.0482,1.4089,3.036
9.520000,-1.4389,1.8806,1.4086,2.755
9.521000,-1.1560,1.7137,1.4666,2.535
9.524000,-0.9010,1.4805,1.4618,2.267
9.528000,-0.6815,1.1797,1.3367,1.909
9.534000,-0.5104,0.9154,1.1649,1.567
9.539000,-0.2799,0.6826,1.0498,1.283
9.545000,-0.1193,0.4310,1.0493,1.141
9.549000,-0.0133,0.2572,1.0521,1.083
9.554000,0.0791,0.0907,1.1313,1.138
9.561000,0.1116,-0.0865,1.0431,1.053
9.565000,0.1778,-0.2926,0.9584,1.018
9.570000,0.1859,-0.3780,0.9306,1.022
9.573000,0.1735,-0.4841,0.8332,0.979
9.580000,0.1582,-0.4972,0.6829,0.859
9.585000,0.1603,-0.5202,0.4512,0.707
9.590000,0.0866,-0.5592,0.3576,0.669
9.605000,-0.0124,-0.5819,0.2759,0.644
9.606000,-0.1526,-0.5879,0.1220,0.620
9.607000,-0.2230,-0.6646,0.0624,0.704
9.609000,-0.2856,-0.6982,-0.0195,0.755
9.633000,-0.3741,-0.7330,-0.0957,0.828
9.633000,-0.4113,-0.7080,-0.1583,0.834
9.634000,-0.4871,-0.7810,-0.1947,0.941
9.634000,-0.5080,-1.0023,-0.2156,1.144
9.635000,-0.5617,-1.0357,-0.2864,1.213
9.640000,-0.6266,-1.0538,-0.3113,1.265
9.646000,-0.6923,-1.1116,-0.2476,1.333
9.649000,-0.8041,-1.1157,-0.2852,1.404
9.655000,-0.8952,-1.0889,-0.2991,1.441
9.660000,-1.0163,-1.0348,-0.3169,1.485
9.665000,-1.0890,-1.0070,-0.4343,1.546
9.670000,-1.0645,-0.8467,-0.4875,1.445
9.676000,-1.0489,-0.6855,-0.3485,1.301
9.681000,-1.0889,-0.5366,-0.1551,1.224
9.685000,-1.1351,-0.3832,-0.0911,1.201
9.691000,-1.1829,-0.2539,-0.0296,1.210
9.705000,-1.2420,-0.1799,-0.0532,1.256
9.706000,-1.3481,-0.0618,-0.0710,1.351
9.707000,-1.3815,0.0583,-0.0836,1.385
9.728000,-1.4320,0.1721,-0.0746,1.444
9.729000,-1.4949,0.3239,-0.1258,1.535
9.729000,-1.4997,0.5409,-0.1375,1.600
9.730000,-1.5438,0.6620,-0.0550,1.681
9.731000,-1.6024,0.7063,-0.0281,1.751
9.737000,-1.6171,0.7316,0.0394,1.775
9.741000,-1.6379,0.7472,0.1356,1.805
9.746000,-1.5742,0.7653,0.1926,1.761
9.752000,-1.5024,0.7393,0.2743,1.697
9.756000,-1.4356,0.6392,0.3178,1.603
9.762000,-1.3387,0.6074,0.3105,1.502
9.766000,-1.2430,0.5184,0.3088,1.382
9.772000,-1.1580,0.4880,0.2795,1.287
9.777000,-1.0110,0.4435,0.2058,1.123
9.782000,-0.7878,0.3859,0.0844,0.881
9.787000,-0.5612,0.3130,-0.0163,0.643
9.792000,-0.3753,0.2067,-0.1305,0.448
9.813000,-0.2020,0.0968,-0.2606,0.344
9.815000,-0.0594,-0.0405,-0.3878,0.394
9.816000,0.0075,-0.0989,-0.6029,0.611
9.817000,0.1085,-0.1563,-0.6539,0.681
9.818000,0.2087,-0.1826,-0.7049,0.757
9.822000,0.3172,-0.2339,-0.7932,0.886
9.846000,0.4172,-0.2756,-0.9056,1.034
9.847000,0.4981,-0.2909,-1.0099,1.163
9.848000,0.5358,-0.3193,-1.1208,1.283
9.849000,0.5791,-0.3273,-1.1999,1.372
9.849000,0.6145,-0.3661,-1.3037,1.487
9.852000,0.6326,-0.3725,-1.3866,1.569
9.857000,0.6205,-0.4122,-1.3951,1.582
9.862000,0.6091,-0.3788,-1.3159,1.499
9.868000,0.6095,-0.4171,-1.2816,1.479
9.873000,0.6145,-0.4242,-1.2845,1.486
9.885000,0.5803,-0.3776,-1.2209,1.403
9.886000,0.4828,-0.2652,-1.2356,1.353
9.888000,0.4270,-0.1408,-1.2259,1.306
9.893000,0.3697,0.0038,-1.1798,1.236
9.898000,0.3215,0.1328,-1.2041,1.253
9.903000,0.2072,0.2761,-1.2189,1.267
9.909000,0.0626,0.4338,-1.2686,1.342
9.924000,-0.0538,0.4946,-1.3890,1.475
9.926000,-0.1430,0.5459,-1.5123,1.614
9.926000,-0.2826,0.6342,-1.5905,1.735
9.932000,-0.4497,0.7069,-1.6439,1.845
9.951000,-0.5796,0.7700,-1.7204,1.972
9.952000,-0.6915,0.8426,-1.7170,2.034
9.953000,-0.7985,0.8194,-1.6503,2.008
9.955000,-0.8027,0.7318,-1.5832,1.920
9.955000,-0.7460,0.6204,-1.5635,1.840
9.959000,-0.7104,0.5305,-1.5112,1.752
9.964000,-0.6324,0.3869,-1.4060,1.589
9.969000,-0.4892,0.2743,-1.2837,1.401
9.974000,-0.4004,0.1592,-1.2052,1.280
9.980000,-0.2920,-0.0227,-1.2362,1.270
9.985000,-0.1788,-0.2153,-1.2417,1.273
9.990000,-0.0825,-0.2832,-1.2538,1.288
9.995000,0.0122,-0.2900,-1.3240,1.355
10.000000,0.0669,-0.2942,-1.3961,1.428
10.005000,0.1330,-0.2145,-1.4774,1.499
10.010000,0.2079,-0.1264,-1.4556,1.476
10.023000,0.3321,-0.0440,-1.4166,1.456
10.025000,0.4467,0.0063,-1.3914,1.461
10.025000,0.6178,-0.0162,-1.3657,1.499
10.046000,0.7048,0.0691,-1.3311,1.508
10.046000,0.7657,0.2945,-1.2991,1.536
10.047000,0.9363,0.5130,-1.0613,1.505
10.047000,1.1370,0.8719,-0.7010,1.595
10.050000,1.3650,1.4643,-0.3751,2.037
10.055000,1.6098,2.1387,-0.1059,2.679
10.060000,1.8951,2.7024,-0.0105,3.301
10.065000,2.1294,3.0072,-0.0086,3.685
10.070000,2.3010,3.2466,-0.1165,3.981
10.076000,2.3910,3.3644,-0.2024,4.132
10.080000,2.4019,3.3100,-0.2220,4.096
10.086000,2.3479,3.1610,-0.2343,3.945
10.090000,2.1347,2.9280,-0.1018,3.625
10.097000,1.6423,2.7459,0.2148,3.207
10.101000,0.9364,2.6257,0.5614,2.844
10.106000,0.2935,2.3225,0.7496,2.458
10.111000,-0.1143,1.9287,0.8592,2.115
10.116000,-0.3532,1.5902,0.8862,1.854
10.121000,-0.5156,1.3219,0.9063,1.684
10.126000,-0.6783,1.1928,1.0157,1.707
10.145000,-0.8315,1.1307,1.1627,1.823
10.146000,-0.9766,1.0450,1.1890,1.860
10.147000,-1.0462,0.9573,1.1367,1.817
10.149000,-1.0802,0.7745,0.9328,1.624
10.151000,-1.0721,0.5687,0.6980,1.400
10.156000,-1.0400,0.3003,0.4625,1.177
10.161000,-1.0757,0.1071,0.3511,1.137
10.177000,-1.0678,-0.0565,0.3639,1.130
10.178000,-1.1089,-0.2142,0.4280,1.208
10.179000,-1.1826,-0.3801,0.5391,1.354
10.182000,-1.2163,-0.5936,0.7524,1.548
10.187000,-1.1847,-0.8822,0.9390,1.750
10.192000,-1.1811,-1.1404,1.0969,1.975
10.197000,-1.1823,-1.4128,1.2612,2.233
10.202000,-1.1331,-1.6993,1.4861,2.526
10.207000,-1.0907,-1.9377,1.6559,2.772
10.214000,-1.0588,-2.1363,1.8537,3.020
10.217000,-1.0111,-2.2654,1.9361,3.147
10.222000,-0.8842,-2.3045,2.0426,3.204
10.228000,-0.7863,-2.2094,2.1516,3.183
10.232000,-0.6902,-2.1056,2.2156,3.134
10.238000,-0.6131,-1.9034,2.2611,3.019
10.243000,-0.5038,-1.7187,2.1708,2.814
10.262000,-0.3840,-1.4918,2.0294,2.548
10.263000,-0.2274,-1.1988,1.8745,2.237
10.264000,-0.0952,-0.9415,1.6743,1.923
10.265000,0.0084,-0.6353,1.5236,1.651
10.268000,0.1323,-0.3436,1.4140,1.461
10.272000,0.2387,-0.1001,1.3305,1.355
10.277000,0.3410,0.1789,1.2469,1.305
10.298000,0.4185,0.4751,1.1495,1.312
10.299000,0.5300,0.7561,1.0884,1.427
10.299000,0.6068,1.0443,1.0861,1.624
10.300000,0.5849,1.3288,1.0968,1.820
10.303000,0.5702,1.5962,1.1063,2.024
10.308000,0.4456,1.8478,1.1771,2.236
10.315000,0.3105,2.0239,1.1889,2.368
10.319000,-0.0029,2.1606,1.1663,2.455
10.323000,-0.2881,2.1413,1.1529,2.449
10.330000,-0.6009,2.0942,0.9403,2.373
10.334000,-0.8024,1.9542,0.7400,2.238
10.339000,-0.7865,1.5525,0.6686,1.864
10.344000,-0.8850,1.4102,0.6605,1.791
10.349000,-1.0102,1.3035,0.6910,1.788
10.354000,-1.0839,1.1596,0.7723,1.765
10.359000,-1.1205,0.9905,0.8221,1.707
10.377000,-1.1633,0.7664,0.7661,1.590
10.378000,-1.1158,0.4780,0.7288,1.416
10.378000,-1.0736,0.2640,0.6022,1.259
10.404000,-1.0392,0.0620,0.5153,1.162
10.405000,-1.0077,-0.1243,0.4617,1.115
10.405000,-0.9688,-0.2951,0.5738,1.164
10.406000,-0.9537,-0.4919,0.5733,1.217
10.406000,-0.9615,-0.7399,0.5441,1.330
10.407000,-0.8739,-0.9084,0.5677,1.382
10.409000,-0.8359,-1.0586,0.6513,1.498
10.417000,-0.8772,-1.1833,0.7055,1.633
10.419000,-0.8825,-1.2981,0.6802,1.711
10.425000,-0.9265,-1.2919,0.7316,1.750
10.431000,-0.9367,-1.2303,0.8548,1.767
10.434000,-0.8739,-1.1695,0.9502,1.742
10.440000,-0.7361,-1.1440,1.0169,1.698
10.445000,-0.6152,-1.1443,1.0349,1.661
10.451000,-0.5583,-1.1740,0.9927,1.636
10.455000,-0.4994,-1.1435,0.9046,1.541
10.460000,-0.4540,-1.1128,0.7616,1.423
10.479000,-0.3978,-1.0581,0.6792,1.319
10.481000,-0.3896,-0.9292,0.6712,1.211
10.481000,-0.3268,-0.8602,0.5948,1.096
10.482000,-0.2648,-0.8187,0.5839,1.040
10.485000,-0.2011,-0.7615,0.5578,0.965
10.490000,-0.1430,-0.7367,0.5249,0.916
10.516000,-0.0449,-0.7321,0.4828,0.878
10.517000,0.0633,-0.6738,0.4409,0.808
10.518000,0.1150,-0.6132,0.4433,0.765
10.519000,0.1640,-0.5493,0.4398,0.722
10.520000,0.2327,-0.4507,0.4566,0.682
10.521000,0.2707,-0.4120,0.4365,0.658
10.526000,0.3821,-0.4140,0.4648,0.730
10.532000,0.4798,-0.3669,0.4193,0.735
10.536000,0.4872,-0.3856,0.3652,0.721
10.541000,0.4785,-0.3706,0.2605,0.659
10.549000,0.5320,-0.3220,0.2065,0.655
10.551000,0.6290,-0.3333,0.1611,0.730
10.557000,0.6646,-0.3493,0.1161,0.760
10.561000,0.6011,-0.2962,0.1058,0.678
10.566000,0.5618,-0.2542,0.1016,0.625
10.571000,0.5369,-0.2183,0.0857,0.586
10.577000,0.4463,-0.1838,-0.0109,0.483
10.594000,0.3478,-0.1220,-0.0423,0.371
10.596000,0.2407,-0.0388,-0.1126,0.269
10.596000,0.1810,-0.0046,-0.1965,0.267
10.600000,0.1387,0.0261,-0.2507,0.288
10.601000,0.1138,0.0343,-0.2770,0.301
10.606000,0.1163,0.0450,-0.2702,0.298
10.611000,0.1124,0.0572,-0.2704,0.298
10.625000,0.1131,0.0947,-0.3076,0.341
10.626000,0.1220,0.0798,-0.3394,0.369
10.626000,0.1451,0.0414,-0.3518,0.383
10.638000,0.1978,-0.0279,-0.4022,0.449
10.639000,0.2647,-0.0801,-0.4178,0.501
10.642000,0.2922,-0.1083,-0.5366,0.621
10.650000,0.3149,-0.1387,-0.6083,0.699
10.652000,0.3769,-0.1871,-0.6355,0.762
10.657000,0.4234,-0.2043,-0.6784,0.825
10.662000,0.4939,-0.2012,-0.7260,0.901
10.667000,0.5956,-0.2377,-0.7082,0.955
10.672000,0.6281,-0.2360,-0.6894,0.962
10.677000,0.6917,-0.2618,-0.6767,1.002
10.692000,0.7194,-0.3211,-0.7050,1.057
10.693000,0.7307,-0.3601,-0.6486,1.041
10.693000,0.7982,-0.4196,-0.6644,1.120
10.719000,0.7776,-0.5030,-0.6915,1.156
10.720000,0.7941,-0.5457,-0.5924,1.131
10.721000,0.8191,-0.5539,-0.5274,1.121
10.721000,0.8287,-0.6160,-0.5646,1.177
10.722000,0.7988,-0.6529,-0.5677,1.178
10.723000,0.8310,-0.6289,-0.5412,1.174
10.728000,0.8512,-0.6241,-0.5666,1.198
10.733000,0.8522,-0.6480,-0.5447,1.201
10.738000,0.8674,-0.6492,-0.5605,1.220
10.743000,0.8729,-0.5799,-0.5730,1.194
10.748000,0.9129,-0.5418,-0.5871,1.213
10.753000,0.9477,-0.5109,-0.5776,1.222
10.759000,0.9454,-0.4334,-0.5598,1.181
10.763000,0.9668,-0.3714,-0.5551,1.175
10.768000,1.0323,-0.3143,-0.5907,1.230
10.774000,1.0105,-0.2451,-0.6244,1.213
10.779000,0.9899,-0.1174,-0.7231,1.232
10.796000,0.9923,0.0175,-0.8015,1.276
10.798000,0.9685,0.1224,-0.8582,1.300
10.798000,0.9075,0.2202,-0.9902,1.361
10.801000,0.8323,0.3671,-1.0623,1.399
10.803000,0.7691,0.3693,-1.1331,1.418
10.811000,0.7146,0.4373,-1.2244,1.484
10.826000,0.6602,0.4432,-1.2236,1.459
10.828000,0.6231,0.4228,-1.2410,1.452
10.829000,0.5695,0.4947,-1.2284,1.442
10.830000,0.5556,0.8798,-1.1592,1.558
10.839000,0.5200,1.5411,-1.0736,1.949
10.840000,0.5946,2.2680,-1.1015,2.590
10.844000,0.7658,3.0761,-1.3450,3.444
10.859000,0.9024,3.8698,-1.6923,4.319
10.860000,1.0999,4.4506,-1.9476,4.981
10.861000,1.3839,4.5243,-1.8894,5.095
10.870000,1.7141,4.0805,-1.5426,4.687
10.873000,2.0461,3.2733,-1.1371,4.024
10.874000,2.2647,2.3944,-0.7826,3.387
10.879000,2.2801,1.7387,-0.3612,2.890
10.883000,2.0785,1.3014,-0.0024,2.452
10.889000,1.7140,0.8989,0.3327,1.964
10.894000,1.3972,0.4728,0.5912,1.589
10.909000,1.1942,0.0079,0.6787,1.374
10.910000,1.0785,-0.4217,0.6686,1.337
10.910000,0.9745,-0.7373,0.7679,1.443
10.935000,0.8979,-0.8185,0.8870,1.504
10.936000,0.7951,-0.8392,0.8760,1.450
10.936000,0.6520,-0.7958,0.8754,1.351
10.937000,0.3535,-0.6371,0.9676,1.211
10.937000,0.0760,-0.6092,1.0826,1.245
10.940000,-0.1348,-0.6136,1.0636,1.235
10.945000,-0.3556,-0.6036,1.0628,1.273
10.950000,-0.5822,-0.5432,1.1995,1.440
10.955000,-0.6282,-0.5807,1.4021,1.642
10.960000,-0.7159,-0.6812,1.5111,1.806
10.965000,-0.8174,-0.7562,1.5834,1.936
10.971000,-0.8762,-0.8822,1.5689,2.002
10.976000,-0.9581,-1.0821,1.5989,2.155
10.982000,-1.0649,-1.1860,1.6171,2.271
10.986000,-1.1381,-1.3173,1.7383,2.460
10.991000,-1.2290,-1.3863,1.8802,2.640
10.996000,-1.2491,-1.4849,1.9581,2.757
11.001000,-1.3100,-1.6119,1.9831,2.872
11.006000,-1.3334,-1.6837,2.0139,2.944
11.011000,-1.3515,-1.7769,2.1175,3.077
11.029000,-1.4181,-1.8580,2.0929,3.137
11.030000,-1.4543,-1.8696,2.1087,3.171
11.033000,-1.4674,-1.7652,2.1220,3.126
11.034000,-1.4373,-1.5914,2.1325,3.024
11.060000,-1.4131,-1.4286,2.1663,2.955
11.062000,-1.3709,-1.1331,2.1244,2.771
11.063000,-1.3695,-0.8786,2.0615,2.626
11.063000,-1.3527,-0.6087,1.9609,2.459
11.065000,-1.3971,-0.3199,1.8858,2.369
11.066000,-1.4311,-0.0468,1.7727,2.279
11.067000,-1.4526,0.2691,1.7075,2.258
11.074000,-1.5011,0.5908,1.6159,2.283
11.077000,-1.4573,0.8477,1.4437,2.220
11.086000,-1.4711,1.1153,1.2551,2.232
11.087000,-1.4433,1.4090,1.1477,2.321
11.093000,-1.3420,1.6738,1.0701,2.397
11.099000,-1.2341,1.9601,1.0097,2.527
11.102000,-1.1190,2.1613,1.0156,2.637
11.107000,-0.9490,2.2861,1.1116,2.713
11.112000,-0.7539,2.2784,1.2256,2.695
11.118000,-0.4807,2.2086,1.2082,2.563
11.122000,-0.2459,2.0563,1.2076,2.397
11.128000,-0.0311,1.9435,1.2699,2.322
11.143000,0.1833,1.7263,1.3136,2.177
11.144000,0.3773,1.4685,1.3584,2.036
11.145000,0.5671,1.2128,1.3055,1.870
11.166000,0.6919,0.9688,1.2376,1.717
11.166000,0.7783,0.7499,1.1542,1.581
11.167000,0.8896,0.5439,1.0224,1.460
11.167000,0.9683,0.4014,0.8295,1.337
11.168000,1.0251,0.3293,0.7119,1.291
11.173000,1.0671,0.2942,0.5576,1.239
11.178000,1.1062,0.3154,0.4844,1.248
11.183000,1.1122,0.2720,0.3957,1.211
11.188000,1.0708,0.2395,0.2644,1.129
11.193000,1.0266,0.1965,0.1940,1.063
11.199000,0.9102,0.1966,0.1300,0.940
11.203000,0.7600,0.2170,0.1716,0.809
11.208000,0.6200,0.1526,0.2340,0.680
11.214000,0.5641,0.0239,0.1675,0.589
11.219000,0.4395,-0.1274,0.2101,0.503
11.224000,0.3538,-0.2762,0.1744,0.482
11.229000,0.2630,-0.4524,0.1717,0.551
11.245000,0.1408,-0.6047,0.2025,0.653
11.246000,0.0304,-0.7690,0.2523,0.810
11.247000,-0.0683,-0.8868,0.3795,0.967
11.276000,-0.1150,-0.9496,0.5162,1.087
11.277000,-0.1755,-1.0781,0.6779,1.286
11.278000,-0.1910,-1.1278,0.7827,1.386
11.279000,-0.2177,-1.1751,0.8343,1.457
11.280000,-0.2282,-1.1651,0.8840,1.480
11.280000,-0.2860,-1.1791,0.8696,1.493
11.280000,-0.3563,-1.1287,0.8569,1.461
11.290000,-0.4491,-1.0771,0.8358,1.435
11.291000,-0.4869,-0.9885,0.8565,1.396
11.295000,-0.4820,-0.9131,0.8245,1.321
11.302000,-0.4598,-0.8460,0.8174,1.263
11.305000,-0.4178,-0.7561,0.7456,1.141
11.310000,-0.3856,-0.6758,0.6297,1.001
11.315000,-0.3095,-0.5262,0.5641,0.831
11.320000,-0.2897,-0.3983,0.4661,0.678
11.325000,-0.2472,-0.2371,0.4504,0.566
11.330000,-0.1926,-0.1109,0.3973,0.455
11.348000,-0.1343,-0.0040,0.3279,0.354
11.349000,-0.1258,0.1362,0.2614,0.320
11.350000,-0.1131,0.2138,0.1680,0.295
11.353000,-0.0594,0.2830,0.0957,0.305
11.355000,-0.0400,0.3568,0.0301,0.360
11.363000,-0.0369,0.3755,-0.0170,0.378
11.382000,-0.0431,0.4024,-0.0456,0.407
11.383000,-0.0300,0.3874,-0.0702,0.395
11.384000,-0.0467,0.3259,-0.0369,0.331
11.384000,-0.0309,0.3243,0.0017,0.326
11.386000,0.0135,0.2808,0.0503,0.286
11.391000,0.0208,0.1885,0.0563,0.198
11.396000,0.0735,0.1727,0.0410,0.192
11.401000,0.1213,0.1404,0.0530,0.193
11.406000,0.1317,0.0686,0.0553,0.158
11.411000,0.2135,0.0125,0.0392,0.217
11.417000,0.2528,-0.0170,0.1005,0.273
11.421000,0.3252,-0.0848,0.1313,0.361
11.426000,0.3662,-0.1775,0.1189,0.424
11.431000,0.3700,-0.2223,0.1626,0.461
11.437000,0.3667,-0.2718,0.1499,0.480
11.442000,0.3573,-0.3033,0.1213,0.484
11.446000,0.3249,-0.3060,0.1297,0.465
11.465000,0.2934,-0.3421,0.1118,0.464
11.466000,0.2460,-0.3589,0.0759,0.442
11.467000,0.2163,-0.3350,0.1115,0.414
11.468000,0.2137,-0.2906,0.0920,0.372
11.472000,0.1961,-0.2701,0.0772,0.343
11.477000,0.2525,-0.2770,0.0385,0.377
11.494000,0.2189,-0.2097,0.0487,0.307
11.495000,0.2041,-0.1663,0.0313,0.265
11.495000,0.2273,-0.1252,0.0390,0.262
11.497000,0.2241,-0.0687,0.0824,0.249
11.507000,0.1804,0.0260,0.0938,0.205
11.508000,0.1701,0.0513,0.0744,0.193
11.512000,0.1241,0.1722,0.0781,0.226
11.519000,0.0626,0.2405,0.1097,0.272
11.522000,0.0323,0.3051,0.1155,0.328
11.527000,-0.0410,0.3517,0.1111,0.371
11.534000,-0.1224,0.3827,0.0580,0.406
11.537000,-0.2096,0.4065,0.0436,0.459
11.542000,-0.3133,0.4100,0.0643,0.520
11.547000,-0.4238,0.4361,0.0518,0.610
11.552000,-0.5601,0.5159,0.0361,0.762
11.558000,-0.6256,0.5969,0.0459,0.866
11.563000,-0.7220,0.6167,0.0534,0.951
11.577000,-0.7161,0.5802,-0.0201,0.922
11.578000,-0.7600,0.6046,-0.0659,0.973
11.579000,-0.8273,0.6228,-0.1044,1.041
11.600000,-0.8750,0.5788,-0.1355,1.058
11.601000,-0.8968,0.6171,-0.1510,1.099
11.601000,-0.8931,0.6050,-0.1855,1.095
11.602000,-0.9248,0.5270,-0.2007,1.083
11.603000,-0.8963,0.5161,-0.2360,1.061
11.608000,-0.8652,0.4428,-0.2270,0.998
11.613000,-0.8087,0.3888,-0.2344,0.927
11.619000,-0.7446,0.3144,-0.2164,0.837
11.623000,-0.6853,0.2699,-0.2304,0.772
11.628000,-0.6258,0.2088,-0.1881,0.686
11.634000,-0.5555,0.1489,-0.1563,0.596
11.639000,-0.4756,0.1225,-0.1935,0.528
11.644000,-0.4423,0.0783,-0.1672,0.479
11.650000,-0.3886,0.0711,-0.1168,0.412
11.653000,-0.3757,0.1166,-0.1609,0.425
11.659000,-0.3422,0.1871,-0.1583,0.421
11.664000,-0.2875,0.2528,-0.0812,0.391
11.678000,-0.2425,0.3353,-0.0229,0.414
11.680000,-0.2239,0.4369,0.0214,0.491
11.680000,-0.1636,0.5181,0.0331,0.544
11.705000,-0.1381,0.6340,0.0682,0.652
11.706000,-0.0851,0.7140,0.1364,0.732
11.707000,-0.0645,0.8168,0.1550,0.834
11.707000,-0.0440,0.8836,0.1719,0.901
11.708000,-0.0222,0.9540,0.2705,0.992
11.709000,0.0068,0.9920,0.3168,1.041
11.715000,0.0428,1.0278,0.4459,1.121
11.720000,0.0667,1.1029,0.5344,1.227
11.725000,0.1027,1.1182,0.6480,1.297
11.730000,0.1794,1.1347,0.8156,1.409
11.734000,0.1916,1.2205,0.9531,1.560
11.740000,0.2493,1.2799,1.0871,1.698
11.745000,0.3223,1.4004,1.2379,1.897
11.751000,0.4238,1.4944,1.3264,2.043
11.755000,0.5238,1.5991,1.3732,2.172
11.760000,0.6183,1.5556,1.3778,2.168
11.765000,0.7517,1.4130,1.2941,2.058
11.770000,0.8431,1.1017,1.2653,1.878
11.775000,0.8986,0.7237,1.2596,1.708
11.780000,0.9211,0.2821,1.2821,1.604
11.804000,0.9134,-0.1487,1.3266,1.617
11.805000,0.8512,-0.4923,1.4528,1.754
11.806000,0.7803,-0.8289,1.5795,1.947
11.807000,0.7349,-1.1128,1.6920,2.154
11.810000,0.7123,-1.3487,1.7298,2.306
11.815000,0.6766,-1.5200,1.7221,2.395
11.839000,0.6592,-1.6397,1.6479,2.416
11.841000,0.6335,-1.7248,1.5777,2.422
11.842000,0.6055,-1.7273,1.5083,2.372
11.843000,0.5665,-1.6807,1.4530,2.293
11.843000,0.5406,-1.5839,1.3764,2.167
11.844000,0.4995,-1.5096,1.3328,2.075
11.846000,0.4754,-1.4099,1.3019,1.977
11.853000,0.4861,-1.3243,1.2912,1.912
11.857000,0.5185,-1.2013,1.2995,1.844
11.861000,0.4912,-1.1115,1.3054,1.783
11.878000,0.4559,-1.0250,1.2751,1.698
11.880000,0.4436,-1.0208,1.2144,1.647
11.880000,0.4709,-0.9744,1.1745,1.597
11.881000,0.5175,-0.9506,1.1059,1.547
11.896000,0.5788,-0.9397,1.0107,1.496
11.897000,0.6775,-0.9048,0.9328,1.466
11.897000,0.7636,-0.9417,0.8922,1.505
11.924000,0.8207,-0.9044,0.8914,1.512
11.925000,0.8943,-0.8325,0.9649,1.557
11.926000,0.9691,-0.7608,1.1356,1.676
11.927000,1.0380,-0.6667,1.3211,1.808
11.927000,1.0650,-0.5642,1.3851,1.836
11.928000,1.1181,-0.5025,1.4874,1.927
11.932000,1.1257,-0.4145,1.5959,1.996
11.937000,1.1508,-0.3599,1.6209,2.020
11.942000,1.1815,-0.3005,1.5999,2.011
11.947000,1.1819,-0.2493,1.5461,1.962
11.952000,1.2166,-0.1465,1.4859,1.926
11.957000,1.2780,-0.0592,1.4084,1.903
11.962000,1.2741,0.0211,1.2932,1.816
11.968000,1.2933,0.0968,1.1929,1.762
11.972000,1.3333,0.1691,1.1094,1.743
11.977000,1.3821,0.2342,1.0031,1.724
11.983000,1.3981,0.2612,0.8976,1.682
11.987000,1.4388,0.2714,0.8742,1.705
11.993000,1.4953,0.2600,0.7818,1.707
11.998000,1.5054,0.2592,0.7270,1.692
12.011000,1.5163,0.1780,0.6632,1.665
12.013000,1.4815,0.1348,0.5950,1.602
12.013000,1.4450,0.0735,0.5519,1.549
12.035000,1.4144,-0.0048,0.4671,1.490
12.036000,1.3345,-0.0667,0.4233,1.402
12.036000,1.2569,-0.1503,0.3751,1.320
12.036000,1.1932,-0.2316,0.3179,1.256
12.038000,1.1695,-0.3094,0.2898,1.244
12.043000,1.0792,-0.3490,0.2804,1.168
12.048000,1.0406,-0.3861,0.2732,1.143
12.053000,1.0269,-0.4686,0.2539,1.157
12.058000,1.0621,-0.5795,0.2085,1.228
12.064000,1.0480,-0.6328,0.1780,1.237
12.069000,1.0410,-0.6429,0.2198,1.243
12.073000,1.0849,-0.7077,0.2529,1.320
12.079000,1.0852,-0.7734,0.2413,1.354
12.084000,1.1265,-0.7801,0.2927,1.401
12.089000,1.1763,-0.7947,0.3643,1.466
12.093000,1.2071,-0.8472,0.4179,1.533
12.099000,1.2465,-0.8563,0.4105,1.567
12.115000,1.2990,-0.8290,0.4808,1.614
12.116000,1.3301,-0.8073,0.5453,1.649
12.117000,1.4318,-0.7887,0.5715,1.732
12.124000,1.5336,-0.8009,0.6156,1.836
12.124000,1.5209,-0.7853,0.5796,1.807
12.129000,1.6280,-0.7752,0.5923,1.898
12.145000,1.7091,-0.7745,0.5733,1.962
12.146000,1.8078,-0.7198,0.5895,2.033
12.147000,1.9183,-0.6508,0.6442,2.126
12.149000,2.0349,-0.5891,0.6775,2.224
12.157000,2.2332,-0.5407,0.6893,2.399
12.159000,2.3641,-0.4640,0.7503,2.523
12.164000,2.5038,-0.4107,0.7695,2.651
12.170000,2.5592,-0.3521,0.7792,2.698
12.175000,2.5917,-0.2991,0.8273,2.737
12.180000,2.5428,-0.2648,0.7785,2.672
12.185000,2.3731,-0.1524,0.7583,2.496
12.190000,1.9256,0.0381,0.7929,2.083
12.195000,1.4733,0.1791,0.7866,1.680
12.200000,1.2044,0.2483,0.7394,1.435
12.204000,1.0313,0.2062,0.6667,1.245
12.210000,0.9122,0.1809,0.5889,1.101
12.216000,0.8318,0.1508,0.4867,0.975
12.230000,0.8180,0.0977,0.4894,0.958
12.232000,0.8049,0.0156,0.5310,0.964
12.233000,0.8024,-0.0367,0.5423,0.969
12.237000,0.8640,-0.0773,0.5846,1.046
12.241000,0.9238,-0.1479,0.5969,1.110
12.246000,1.0620,-0.1853,0.6260,1.247
12.250000,1.1098,-0.2586,0.6887,1.331
12.259000,1.1631,-0.3118,0.6451,1.366
12.261000,1.2038,-0.3268,0.6902,1.426
12.265000,1.2746,-0.3706,0.6376,1.473
12.271000,1.3040,-0.3834,0.6057,1.488
12.276000,1.2801,-0.4693,0.5931,1.487
12.281000,1.2732,-0.5324,0.5689,1.493
12.286000,1.2678,-0.5418,0.5506,1.485
12.291000,1.2721,-0.5750,0.5573,1.503
12.296000,1.2528,-0.6036,0.5675,1.502
12.302000,1.2147,-0.6645,0.5359,1.485
12.306000,1.1674,-0.6991,0.5474,1.467
12.311000,1.1613,-0.7409,0.5541,1.485
12.316000,1.1543,-0.7410,0.5885,1.493
12.330000,1.1323,-0.7185,0.6495,1.490
12.331000,1.1298,-0.7618,0.6963,1.530
12.332000,1.1062,-0.7108,0.7018,1.490
12.358000,1.0902,-0.6647,0.7163,1.464
12.359000,1.0722,-0.6510,0.7914,1.483
12.359000,1.0583,-0.5788,0.7979,1.446
12.360000,1.0758,-0.5044,0.8016,1.433
12.360000,1.0887,-0.4684,0.8178,1.440
12.362000,1.1425,-0.3906,0.7665,1.430
12.369000,1.1628,-0.3691,0.7167,1.415
12.372000,1.1521,-0.3655,0.6408,1.368
12.377000,1.1917,-0.3739,0.6463,1.406
12.382000,1.1941,-0.3369,0.6229,1.388
12.387000,1.2155,-0.3429,0.5800,1.390
12.392000,1.2547,-0.3333,0.5548,1.412
12.397000,1.3057,-0.3188,0.5473,1.451
12.402000,1.3217,-0.3330,0.5408,1.466
12.407000,1.3351,-0.3053,0.5794,1.487
12.412000,1.3554,-0.3314,0.5534,1.501
12.417000,1.3768,-0.3346,0.6018,1.539
12.423000,1.4195,-0.3485,0.5451,1.560
12.428000,1.4227,-0.3432,0.4983,1.546
12.433000,1.3892,-0.3357,0.5042,1.515
12.447000,1.3605,-0.3269,0.4614,1.473
12.448000,1.3369,-0.3182,0.4380,1.442
12.448000,1.3278,-0.2724,0.4244,1.420
12.471000,1.3535,-0.2722,0.4292,1.446
12.472000,1.3088,-0.2911,0.3780,1.393
12.473000,1.2871,-0.2932,0.3617,1.369
12.473000,1.3051,-0.2333,0.3805,1.379
12.474000,1.2959,-0.2607,0.3732,1.374
12.479000,1.2905,-0.2822,0.3340,1.363
12.483000,1.3210,-0.2641,0.3277,1.386
12.489000,1.3526,-0.2783,0.3168,1.417
12.493000,1.3614,-0.3044,0.3121,1.429
12.499000,1.3426,-0.3710,0.3508,1.436
12.503000,1.3833,-0.4422,0.2917,1.481
12.509000,1.3928,-0.5133,0.2795,1.511
12.513000,1.4177,-0.5651,0.3059,1.557
12.520000,1.4422,-0.6394,0.3315,1.612
12.523000,1.4864,-0.7338,0.3180,1.688
12.529000,1.5543,-0.7717,0.3877,1.778
12.534000,1.6016,-0.7832,0.4387,1.836
12.539000,1.6772,-0.7623,0.4699,1.901
12.544000,1.7376,-0.6957,0.4753,1.931
12.549000,1.8454,-0.5334,0.6046,2.014
12.568000,1.9728,-0.2084,0.7056,2.106
12.570000,2.0516,0.2060,0.8648,2.236
12.571000,2.1116,0.5699,1.0142,2.411
12.571000,2.1159,0.8787,1.0115,2.504
12.577000,2.0141,1.0594,0.8542,2.431
12.579000,1.8136,1.1027,0.4424,2.168
12.584000,1.5370,0.9548,-0.1183,1.813
12.602000,1.2391,0.6638,-0.5601,1.513
12.603000,1.0339,0.3685,-0.9699,1.465
12.604000,0.8223,0.1691,-1.2467,1.503
12.605000,0.6632,0.1014,-1.3357,1.495
12.610000,0.5246,0.1866,-1.2537,1.372
12.615000,0.4974,0.3277,-0.9571,1.127
12.620000,0.4859,0.4793,-0.5062,0.850
12.625000,0.5141,0.5995,-0.0896,0.795
12.630000,0.6212,0.6873,0.3069,0.976
12.637000,0.7895,0.6913,0.6472,1.233
12.640000,0.9452,0.6713,0.8712,1.450
12.645000,1.0467,0.6226,1.0154,1.586
12.650000,1.1000,0.5225,1.0299,1.595
12.666000,1.1839,0.3926,1.0034,1.601
12.667000,1.2230,0.2677,0.9236,1.556
12.668000,1.2099,0.1727,0.8832,1.508
12.692000,1.2231,0.0482,0.9091,1.525
12.693000,1.2489,-0.0233,1.0199,1.613
12.694000,1.2593,-0.1004,1.0938,1.671
12.694000,1.3261,-0.2045,1.1219,1.749
12.695000,1.3080,-0.2520,1.0944,1.724
12.696000,1.2713,-0.3004,1.0087,1.650
12.701000,1.1394,-0.3747,0.9422,1.525
12.706000,1.0034,-0.4201,0.8157,1.360
12.711000,0.8036,-0.4618,0.6788,1.149
12.716000,0.4626,-0.4424,0.5325,0.833
12.721000,0.2699,-0.4159,0.4346,0.659
12.726000,0.1226,-0.4290,0.3643,0.576
12.731000,-0.0121,-0.3682,0.3858,0.533
12.737000,-0.1514,-0.3116,0.4119,0.538
12.741000,-0.2975,-0.1827,0.5790,0.676
12.747000,-0.4670,-0.0545,0.7860,0.916
12.751000,-0.5915,0.0623,0.9845,1.150
12.757000,-0.7284,0.1713,1.1979,1.412
12.762000,-0.8539,0.2308,1.3749,1.635
12.767000,-0.9975,0.2385,1.4502,1.776
12.790000,-1.1202,0.2052,1.5309,1.908
12.792000,-1.2204,0.1275,1.5517,1.978
12.793000,-1.3147,0.1057,1.5044,2.001
12.794000,-1.4769,0.0827,1.4479,2.070
12.795000,-1.5719,0.0490,1.3821,2.094
12.800000,-1.6612,0.0022,1.2816,2.098
12.802000,-1.7585,0.0740,1.2521,2.160
12.826000,-1.8381,0.0683,1.2112,2.202
12.827000,-1.9026,0.1132,1.2504,2.279
12.828000,-1.9607,0.2121,1.2640,2.342
12.829000,-2.0251,0.3138,1.2813,2.417
12.830000,-2.0880,0.3704,1.2666,2.470
12.832000,-2.1236,0.4755,1.2515,2.510
12.841000,-2.1608,0.4997,1.1961,2.520
12.844000,-2.1711,0.4563,1.1299,2.490
12.848000,-2.1460,0.4314,1.1390,2.468
12.865000,-2.0900,0.3819,1.1455,2.414
12.866000,-2.0265,0.3734,1.1649,2.367
12.868000,-1.9719,0.3831,1.1958,2.338
12.868000,-1.9198,0.4801,1.2217,2.326
12.883000,-1.8032,0.5664,1.2894,2.288
12.884000,-1.6384,0.6061,1.3421,2.203
12.884000,-1.5143,0.7114,1.3845,2.172
12.906000,-1.4308,0.8345,1.4223,2.183
12.907000,-1.3826,0.9357,1.3131,2.124
12.907000,-1.3432,1.0355,1.2329,2.097
12.908000,-1.3666,1.1327,1.1252,2.102
12.909000,-1.3702,1.2021,1.0340,2.096
12.914000,-1.3580,1.2114,0.9150,2.037
12.918000,-1.3274,1.1083,0.8506,1.927
12.923000,-1.3144,1.0099,0.6637,1.785
12.929000,-1.3058,0.8791,0.5322,1.662
12.933000,-1.2693,0.7627,0.5135,1.567
12.939000,-1.2216,0.6414,0.5319,1.479
12.944000,-1.1840,0.4207,0.4343,1.329
12.949000,-1.2540,0.2488,0.3064,1.315
12.955000,-1.3227,0.1735,0.2409,1.356
12.958000,-1.3740,0.1014,0.2862,1.407
12.964000,-1.4154,0.0529,0.4185,1.477
12.969000,-1.3962,-0.0446,0.5562,1.504
12.973000,-1.2915,-0.1683,0.6543,1.458
12.979000,-1.1991,-0.2153,0.6432,1.378
12.984000,-1.1424,-0.2683,0.6035,1.320
12.999000,-1.1131,-0.2207,0.5740,1.272
13.000000,-1.0949,-0.2042,0.5548,1.244
13.000000,-1.0792,-0.1898,0.4266,1.176
13.025000,-1.0747,-0.1418,0.3645,1.144
13.026000,-1.0170,-0.1594,0.3480,1.087
13.027000,-0.9742,-0.2328,0.3069,1.048
13.027000,-0.9619,-0.2114,0.2076,1.006
13.028000,-0.9430,-0.2137,0.1432,0.977
13.029000,-0.9164,-0.3043,0.0831,0.969
13.034000,-0.8796,-0.3336,0.0247,0.941
13.040000,-0.8288,-0.3437,-0.0231,0.898
13.044000,-0.7785,-0.3872,-0.0079,0.870
13.050000,-0.7537,-0.4188,-0.0354,0.863
13.054000,-0.7280,-0.4540,-0.0712,0.861
13.060000,-0.6713,-0.4641,-0.1176,0.825
13.065000,-0.6374,-0.4958,-0.1065,0.815
13.082000,-0.6179,-0.5026,-0.1746,0.815
13.083000,-0.6033,-0.5214,-0.2066,0.824
13.084000,-0.5958,-0.5331,-0.1786,0.819
13.104000,-0.5848,-0.4552,-0.2075,0.770
13.105000,-0.5633,-0.4275,-0.2138,0.739
13.106000,-0.5611,-0.4776,-0.1820,0.759
13.106000,-0.5660,-0.4631,-0.2110,0.761
13.107000,-0.5636,-0.4234,-0.2062,0.734
13.110000,-0.5591,-0.4124,-0.1855,0.719
13.115000,-0.5311,-0.4874,-0.2228,0.754
13.121000,-0.4661,-0.4809,-0.2349,0.710
13.126000,-0.4573,-0.5210,-0.2947,0.753
13.130000,-0.4546,-0.5588,-0.3296,0.792
13.135000,-0.4351,-0.5558,-0.3278,0.778
13.140000,-0.3777,-0.5864,-0.3038,0.761
13.146000,-0.3338,-0.5965,-0.3140,0.752
13.151000,-0.2733,-0.6043,-0.2986,0.727
13.156000,-0.2190,-0.6253,-0.2489,0.708
13.161000,-0.1781,-0.6091,-0.2355,0.677
13.166000,-0.0858,-0.6420,-0.1829,0.673
13.171000,-0.0321,-0.6067,-0.1592,0.628
13.176000,0.0047,-0.5893,-0.1738,0.614
13.181000,0.0795,-0.6018,-0.1739,0.631
13.200000,0.0705,-0.5603,-0.1988,0.599
13.201000,0.1040,-0.5416,-0.2295,0.597
13.202000,0.1695,-0.5096,-0.2394,0.588
13.203000,0.1649,-0.4583,-0.2635,0.554
13.232000,0.2029,-0.4261,-0.2905,0.554
13.234000,0.2234,-0.4224,-0.3759,0.608
13.234000,0.2326,-0.4090,-0.3942,0.614
13.235000,0.2303,-0.3776,-0.4375,0.622
13.235000,0.2420,-0.3999,-0.4615,0.657
13.236000,0.2639,-0.4112,-0.4938,0.695
13.238000,0.2032,-0.3986,-0.5178,0.684
13.248000,0.1902,-0.3752,-0.5320,0.678
13.249000,0.1565,-0.3278,-0.5211,0.635
13.264000,0.1539,-0.3152,-0.5674,0.667
13.265000,0.1450,-0.3060,-0.6244,0.710
13.265000,0.1444,-0.2274,-0.6131,0.670
13.268000,0.1103,-0.2111,-0.5692,0.617
13.274000,0.0726,-0.1636,-0.6560,0.680
13.278000,0.0586,-0.1614,-0.6953,0.716
13.283000,0.0432,-0.1281,-0.7059,0.719
13.289000,0.0645,-0.0874,-0.7836,0.791
13.293000,0.1118,-0.0801,-0.8531,0.864
13.298000,0.1230,-0.0799,-0.8656,0.878
13.318000,0.1474,-0.0581,-0.8822,0.896
13.319000,0.1441,-0.0637,-0.8889,0.903
13.320000,0.1529,-0.0622,-0.8990,0.914
13.321000,0.1343,-0.0296,-0.8827,0.893
13.324000,0.1826,-0.0592,-0.8233,0.845
13.328000,0.1436,-0.0504,-0.8501,0.864
13.333000,0.1215,-0.0166,-0.8280,0.837
13.356000,0.1353,-0.0044,-0.8428,0.854
13.357000,0.0979,-0.0112,-0.8549,0.861
13.357000,0.0774,0.0429,-0.8284,0.833
13.358000,0.0558,0.0718,-0.8349,0.840
13.359000,0.0522,0.1043,-0.8459,0.854
13.364000,0.0475,0.1560,-0.8194,0.835
13.369000,0.0345,0.1526,-0.8346,0.849
13.374000,0.0263,0.1839,-0.8079,0.829
13.379000,0.0122,0.2677,-0.7812,0.826
13.384000,-0.0327,0.3562,-0.8023,0.878
13.390000,-0.0450,0.4528,-0.8691,0.981
13.394000,-0.1040,0.5219,-0.9049,1.050
13.399000,-0.1678,0.5765,-1.0330,1.195
13.419000,-0.2088,0.5797,-1.1219,1.280
13.420000,-0.2645,0.6666,-1.1800,1.381
13.421000,-0.3061,0.7427,-1.2762,1.508
13.422000,-0.2537,0.8034,-1.3124,1.560
13.424000,-0.1782,0.8439,-1.2909,1.553
13.429000,-0.0830,0.8965,-1.3037,1.584
13.435000,-0.0041,0.9313,-1.3025,1.601
13.454000,0.1146,0.9604,-1.3056,1.625
13.456000,0.2925,0.9060,-1.2169,1.545
13.456000,0.4026,0.9559,-1.2240,1.604
13.457000,0.5299,1.0192,-1.1426,1.620
13.460000,0.7186,1.1306,-0.8997,1.614
13.465000,0.9004,1.4754,-0.5975,1.829
13.471000,1.1012,1.9902,-0.3224,2.297
13.475000,1.2796,2.4825,-0.1081,2.795
13.480000,1.4545,2.6441,-0.0769,3.019
13.485000,1.6633,2.4608,-0.2314,2.979
13.492000,1.7657,2.1238,-0.5048,2.808
13.495000,1.6960,1.8625,-0.8572,2.661
13.500000,1.6321,1.6920,-0.9113,2.521
13.518000,1.4745,1.6021,-0.6685,2.278
13.519000,1.1185,1.6956,-0.3008,2.053
13.519000,0.7381,1.7298,0.1003,1.883
13.548000,0.4632,1.7768,0.4340,1.887
13.549000,0.2577,1.7182,0.6892,1.869
13.550000,0.0929,1.5780,0.6674,1.716
13.550000,-0.0661,1.4903,0.5943,1.606
13.551000,-0.1712,1.5039,0.6712,1.656
13.551000,-0.3262,1.4669,0.7037,1.659
13.552000,-0.4569,1.3220,0.6890,1.559
13.560000,-0.5298,1.2355,0.5939,1.470
13.561000,-0.6680,1.1749,0.5652,1.465
13.566000,-0.8225,1.1583,0.5574,1.526
13.572000,-0.9316,1.0458,0.5487,1.504
13.576000,-0.9920,0.9022,0.5702,1.457
13.581000,-0.9769,0.7325,0.5573,1.342
13.586000,-0.9678,0.4960,0.5218,1.206
13.591000,-0.9216,0.2240,0.4792,1.063
13.596000,-0.8433,-0.0035,0.4902,0.975
13.601000,-0.7567,-0.2618,0.5977,0.999
13.607000,-0.6768,-0.5366,0.7156,1.122
13.612000,-0.6308,-0.7947,0.8416,1.318
13.617000,-0.5922,-1.0684,0.9864,1.570
13.637000,-0.5467,-1.2990,1.0784,1.775
13.638000,-0.4735,-1.5512,1.1489,1.988
13.639000,-0.4315,-1.7820,1.2292,2.207
13.641000,-0.4040,-2.0176,1.3227,2.446
13.644000,-0.3503,-2.1683,1.3506,2.578
13.650000,-0.3368,-2.3477,1.3786,2.743
13.652000,-0.3572,-2.4589,1.3815,2.843
13.673000,-0.2984,-2.5449,1.4644,2.951
13.674000,-0.2669,-2.5532,1.5567,3.002
13.676000,-0.2008,-2.5173,1.6524,3.018
13.678000,-0.1147,-2.4120,1.7254,2.968
13.679000,-0.0290,-2.2038,1.9047,2.913
13.683000,0.1193,-1.9359,2.0241,2.803
13.689000,0.2725,-1.6477,2.1938,2.757
13.692000,0.4063,-1.3259,2.2297,2.626
13.698000,0.5582,-1.0365,2.2420,2.532
13.703000,0.6777,-0.7447,2.1983,2.418
13.708000,0.8056,-0.4565,2.1510,2.342
13.713000,0.9014,-0.1779,2.0401,2.237
13.718000,1.0119,0.1219,1.8764,2.135
13.722000,1.1041,0.4214,1.6975,2.068
13.728000,1.1212,0.6604,1.5294,2.008
13.733000,1.1380,0.9273,1.4270,2.047
13.753000,1.0475,1.1860,1.3539,2.082
13.756000,0.8428,1.4578,1.3545,2.161
13.757000,0.6363,1.6654,1.3728,2.250
13.758000,0.3095,1.8123,1.3326,2.271
13.760000,-0.0399,1.8318,1.2869,2.239
13.763000,-0.2773,1.8333,1.2683,2.246
13.768000,-0.4771,1.8000,1.1924,2.211
13.786000,-0.6464,1.7487,1.0176,2.124
13.787000,-0.7360,1.6209,0.8227,1.961
13.788000,-0.7606,1.4858,0.7306,1.822
13.789000,-0.7969,1.2839,0.6707,1.653
13.794000,-0.7479,1.0666,0.5987,1.434
13.799000,-0.6817,0.8207,0.5586,1.204
13.805000,-0.5888,0.5808,0.5086,0.971
13.809000,-0.4999,0.3254,0.4890,0.771
13.815000,-0.4541,0.1654,0.5070,0.700
13.819000,-0.4299,-0.0426,0.5878,0.729
13.830000,-0.4468,-0.1836,0.6561,0.815
13.831000,-0.4269,-0.3379,0.7061,0.892
13.834000,-0.3777,-0.5507,0.7036,0.970
13.842000,-0.3375,-0.7383,0.7549,1.109
13.844000,-0.2704,-0.8816,0.8029,1.223
13.849000,-0.2132,-1.0463,0.8469,1.363
13.854000,-0.2045,-1.1761,0.8691,1.477
13.867000,-0.1768,-1.2507,0.8465,1.521
13.868000,-0.1336,-1.3190,0.8218,1.560
13.889000,-0.0230,-1.3476,0.8346,1.585
13.890000,0.1116,-1.3016,0.8775,1.574
13.891000,0.1795,-1.3057,0.9387,1.618
13.891000,0.2872,-1.2723,0.9347,1.605
13.891000,0.3999,-1.1908,0.9121,1.552
13.894000,0.5093,-1.1116,0.8757,1.504
13.900000,0.5413,-0.9831,0.8001,1.378
13.906000,0.6216,-0.9180,0.7523,1.340
13.910000,0.6782,-0.8276,0.6867,1.271
13.915000,0.7183,-0.7000,0.6628,1.202
13.920000,0.7873,-0.6356,0.6771,1.218
13.925000,0.8983,-0.5819,0.6234,1.239
13.930000,0.9356,-0.4992,0.5379,1.189
13.936000,1.0057,-0.4955,0.4917,1.224
13.940000,1.0517,-0.4188,0.4491,1.218
13.946000,1.1086,-0.3793,0.4325,1.249
13.950000,1.0748,-0.3030,0.4132,1.191
13.970000,1.0331,-0.2783,0.3935,1.140
13.972000,0.9871,-0.2454,0.3246,1.068
13.972000,0.8839,-0.1732,0.3356,0.961
13.973000,0.7105,-0.1561,0.2985,0.786
13.977000,0.5874,-0.1031,0.2935,0.665
13.980000,0.4943,-0.0826,0.2861,0.577
13.985000,0.4419,-0.0799,0.2069,0.494
13.999000,0.3742,-0.0952,0.2115,0.440
14.000000,0.2936,-0.0902,0.1576,0.345
14.001000,0.2575,-0.1068,0.1742,0.329
14.012000,0.2441,-0.1233,0.1919,0.334
14.013000,0.2166,-0.1220,0.1820,0.308
14.017000,0.2097,-0.1398,0.2162,0.332
14.024000,0.1850,-0.1624,0.1774,0.303
14.027000,0.1687,-0.2125,0.2019,0.338
14.031000,0.2160,-0.2184,0.2203,0.378
14.036000,0.2204,-0.2900,0.1850,0.409
14.041000,0.2379,-0.2862,0.1942,0.420
14.047000,0.3114,-0.3086,0.1453,0.462
14.051000,0.3477,-0.3153,0.1534,0.494
14.056000,0.4315,-0.3325,0.1097,0.556
14.062000,0.4649,-0.3484,0.0764,0.586
14.067000,0.5112,-0.3773,0.0187,0.636
14.072000,0.5775,-0.4443,-0.0528,0.731
14.076000,0.6470,-0.4848,-0.0953,0.814
14.082000,0.6908,-0.4606,-0.0972,0.836
14.087000,0.7834,-0.4627,-0.1757,0.927
14.102000,0.8184,-0.5449,-0.2404,1.012
14.103000,0.8056,-0.5614,-0.2759,1.020
14.104000,0.8228,-0.5744,-0.2990,1.047
14.107000,0.8327,-0.5814,-0.3297,1.068
14.113000,0.8462,-0.5873,-0.3205,1.079
14.117000,0.8308,-0.6088,-0.3129,1.076
14.130000,0.8321,-0.5776,-0.3415,1.069
14.132000,0.8511,-0.5883,-0.3717,1.099
14.132000,0.8806,-0.5751,-0.3520,1.109
14.144000,0.8968,-0.6037,-0.3625,1.140
14.144000,0.9376,-0.6192,-0.3150,1.167
14.148000,0.9841,-0.6967,-0.2810,1.238
14.153000,1.0207,-0.7466,-0.2486,1.289
14.158000,1.0521,-0.7163,-0.1889,1.287
14.163000,1.0702,-0.7589,-0.1269,1.318
14.168000,1.1134,-0.7584,-0.0935,1.350
14.185000,1.1720,-0.7687,-0.0669,1.403
14.186000,1.2032,-0.7657,-0.0484,1.427
14.186000,1.2223,-0.7064,-0.0173,1.412
14.212000,1.2183,-0.5694,0.0009,1.345
14.214000,1.2511,-0.5078,0.0431,1.351
14.214000,1.2869,-0.4568,0.0474,1.366
14.215000,1.2351,-0.3998,-0.0005,1.298
14.215000,1.2333,-0.3022,-0.0527,1.271
14.216000,1.2440,-0.2032,-0.0697,1.262
14.218000,1.2124,-0.0959,-0.1187,1.222
14.225000,1.1934,-0.0076,-0.2447,1.218
14.228000,1.1883,0.1250,-0.3044,1.233
14.233000,1.1504,0.3089,-0.4044,1.258
14.239000,1.1038,0.4652,-0.5174,1.305
14.243000,1.0255,0.5964,-0.6053,1.332
14.248000,0.9182,0.7059,-0.6348,1.321
14.254000,0.8820,0.7784,-0.6920,1.365
14.259000,0.8275,0.8186,-0.7142,1.366
14.264000,0.7394,0.8027,-0.7227,1.309
14.269000,0.7052,0.8551,-0.7183,1.321
14.275000,0.6686,0.9984,-0.7020,1.392
14.279000,0.6559,1.3080,-0.6432,1.598
14.284000,0.7401,1.8757,-0.4830,2.074
14.301000,0.7977,2.5508,-0.1799,2.679
14.302000,0.8128,3.1790,0.0059,3.281
14.303000,0.8734,3.6626,-0.0574,3.766
14.305000,0.9684,3.8006,-0.3442,3.937
14.309000,1.0511,3.3733,-0.8674,3.638
14.315000,1.2046,2.4815,-1.4468,3.115
14.320000,1.2680,1.5877,-1.6933,2.645
14.329000,1.2348,1.0752,-1.5473,2.253
14.331000,1.1003,0.8680,-1.2841,1.901
14.335000,0.9776,0.8228,-0.9699,1.604
14.341000,0.9029,0.7949,-0.8025,1.446
14.345000,0.9328,0.7917,-0.6325,1.377
14.350000,0.9355,0.8025,-0.4858,1.325
14.355000,0.9883,0.7116,-0.2328,1.240
14.360000,1.0577,0.5167,0.0801,1.180
14.366000,1.0290,0.2659,0.3002,1.104
14.369000,1.0231,-0.0051,0.5484,1.161
14.375000,1.0093,-0.2125,0.7135,1.254
14.379000,0.9899,-0.4197,0.8517,1.372
14.385000,0.9133,-0.6316,0.9058,1.433
14.390000,0.8179,-0.8253,0.8579,1.444
14.395000,0.6809,-0.9782,0.7428,1.404
14.400000,0.5199,-1.0532,0.7612,1.400
14.405000,0.3371,-1.1017,0.7553,1.378
14.421000,0.1823,-1.0615,0.7562,1.316
14.422000,0.0471,-1.0296,0.8106,1.311
14.423000,-0.0986,-0.9807,0.8778,1.320
14.455000,-0.1950,-0.8765,1.0503,1.382
14.456000,-0.2470,-0.8368,1.1798,1.467
14.457000,-0.2787,-0.8385,1.3158,1.585
14.458000,-0.3243,-0.8029,1.4361,1.677
14.458000,-0.3657,-0.7299,1.4642,1.676
14.459000,-0.4493,-0.6867,1.4433,1.660
14.460000,-0.5376,-0.6350,1.4113,1.638
14.461000,-0.6215,-0.5796,1.4086,1.645
14.466000,-0.7215,-0.5874,1.4587,1.730
14.471000,-0.7964,-0.6681,1.5402,1.858
14.477000,-0.8796,-0.7224,1.5660,1.936
14.481000,-1.0115,-0.6916,1.5470,1.973
14.487000,-1.1212,-0.7124,1.4600,1.974
14.491000,-1.2030,-0.7368,1.4363,2.013
14.497000,-1.3214,-0.7697,1.4691,2.121
14.501000,-1.3987,-0.7251,1.4910,2.169
14.520000,-1.4972,-0.6617,1.5523,2.256
14.522000,-1.5428,-0.6726,1.6517,2.358
14.523000,-1.5978,-0.6226,1.7654,2.461
14.524000,-1.6514,-0.5932,1.8519,2.551
14.552000,-1.6555,-0.5089,2.0266,2.666
14.554000,-1.7197,-0.4643,2.1545,2.795
14.555000,-1.7614,-0.3829,2.2025,2.846
14.556000,-1.8129,-0.2181,2.2751,2.917
14.557000,-1.8750,-0.0417,2.3771,3.028
14.558000,-1.9286,0.2000,2.3854,3.074
14.559000,-2.0161,0.4378,2.3938,3.160
14.565000,-2.1170,0.6681,2.4025,3.271
14.567000,-2.1912,0.8850,2.3002,3.298
14.572000,-2.2800,1.1198,2.1776,3.346
14.577000,-2.3551,1.3773,2.0240,3.397
14.583000,-2.4052,1.5943,1.8428,3.424
14.588000,-2.4525,1.7876,1.6072,3.434
14.593000,-2.4208,2.0075,1.4389,3.458
14.598000,-2.3356,2.0854,1.2814,3.383
14.603000,-2.1884,2.0384,1.1385,3.200
14.622000,-1.7661,1.8544,1.0104,2.753
14.626000,-1.2952,1.7021,0.8339,2.296
14.627000,-0.9037,1.6157,0.7524,1.998
14.627000,-0.6090,1.5186,0.7032,1.781
14.628000,-0.3761,1.4047,0.6576,1.596
14.633000,-0.1831,1.2416,0.6394,1.409
14.638000,-0.0086,1.0128,0.5877,1.171
14.656000,0.1180,0.8018,0.5788,0.996
14.657000,0.1703,0.6494,0.5587,0.873
14.658000,0.2246,0.4694,0.4929,0.717
14.659000,0.2639,0.2392,0.4534,0.577
14.664000,0.2700,0.0463,0.4160,0.498
14.669000,0.2905,-0.1213,0.4035,0.512
14.674000,0.2893,-0.2886,0.4456,0.605
14.679000,0.3107,-0.4487,0.4416,0.702
14.684000,0.2834,-0.5847,0.4492,0.790
14.689000,0.2299,-0.7051,0.5340,0.914
14.694000,0.2040,-0.7895,0.4963,0.955
14.699000,0.1338,-0.8415,0.4665,0.971
14.704000,0.0314,-0.9306,0.4532,1.036
14.709000,-0.0315,-0.9813,0.4166,1.067
14.714000,-0.1170,-0.9759,0.4156,1.067
14.719000,-0.1559,-0.9249,0.4241,1.029
14.740000,-0.2330,-0.8310,0.3382,0.927
14.741000,-0.3064,-0.7252,0.2850,0.837
14.742000,-0.4168,-0.5585,0.2080,0.727
14.743000,-0.4972,-0.4638,0.1413,0.694
14.747000,-0.5881,-0.3224,0.1231,0.682
14.750000,-0.6611,-0.2099,0.0541,0.696
14.754000,-0.7054,-0.0747,-0.0739,0.713
14.775000,-0.7557,-0.0018,-0.1787,0.777
14.776000,-0.7796,0.0113,-0.2101,0.808
14.777000,-0.8093,0.0972,-0.3248,0.877
14.777000,-0.8256,0.1652,-0.3471,0.911
14.780000,-0.7607,0.1732,-0.3693,0.863
14.785000,-0.7254,0.1095,-0.3830,0.828
14.792000,-0.6696,-0.0033,-0.3633,0.762
14.795000,-0.6219,0.0203,-0.3903,0.735
14.800000,-0.5893,0.0234,-0.3396,0.681
14.805000,-0.5790,0.0144,-0.2676,0.638
14.815000,-0.6115,-0.0210,-0.2114,0.647
14.816000,-0.6011,-0.0037,-0.2056,0.635
14.821000,-0.4449,-0.0581,-0.1758,0.482
14.826000,-0.3243,-0.1747,-0.1569,0.400
14.830000,-0.2940,-0.2520,-0.1202,0.405
14.836000,-0.2737,-0.2899,-0.0271,0.400
14.853000,-0.2470,-0.3445,-0.0357,0.425
14.854000,-0.2087,-0.3192,0.0349,0.383
14.854000,-0.1713,-0.3419,0.0616,0.387
14.888000,-0.0788,-0.4278,0.0481,0.438
14.889000,0.0244,-0.4407,0.0685,0.447
14.890000,0.1073,-0.4667,-0.0040,0.479
14.891000,0.1772,-0.5394,-0.0884,0.575
14.894000,0.2401,-0.5559,-0.1024,0.614
14.894000,0.2660,-0.5904,-0.0771,0.652
14.895000,0.3306,-0.5675,-0.0625,0.660
14.896000,0.3476,-0.5532,-0.0958,0.660
14.896000,0.3780,-0.5652,-0.1315,0.693
14.902000,0.3191,-0.5474,-0.1143,0.644
14.907000,0.3233,-0.6036,-0.1750,0.707
14.911000,0.3893,-0.6287,-0.2308,0.775
14.917000,0.3976,-0.6620,-0.2865,0.824
14.922000,0.4055,-0.6891,-0.3076,0.857
14.928000,0.3891,-0.6923,-0.3624,0.873
14.932000,0.3520,-0.6966,-0.4089,0.881
14.937000,0.3273,-0.7043,-0.4677,0.907
14.952000,0.3139,-0.6867,-0.5041,0.908
14.953000,0.3081,-0.6749,-0.5313,0.913
14.954000,0.2884,-0.6583,-0.6235,0.951
14.973000,0.2619,-0.6200,-0.6825,0.959
14.974000,0.2225,-0.5193,-0.7228,0.917
14.974000,0.2026,-0.4425,-0.6796,0.836
14.975000,0.1758,-0.3583,-0.6846,0.792
14.978000,0.2034,-0.3220,-0.6694,0.770
14.983000,0.2102,-0.2999,-0.6695,0.763
14.987000,0.1638,-0.2645,-0.6477,0.719
14.994000,0.1758,-0.2409,-0.6552,0.720
14.997000,0.1077,-0.2233,-0.6620,0.707
15.003000,0.0409,-0.2475,-0.6681,0.714
15.009000,-0.0068,-0.1699,-0.7010,0.721
15.013000,-0.0781,-0.0901,-0.6606,0.671
15.018000,-0.1074,-0.0916,-0.6497,0.665
15.023000,-0.1569,-0.0800,-0.6131,0.638
15.028000,-0.2324,-0.0540,-0.6598,0.702
15.033000,-0.2898,-0.0639,-0.7325,0.790
15.038000,-0.3407,-0.0536,-0.7198,0.798
15.057000,-0.4065,0.0081,-0.7270,0.833
15.058000,-0.4719,0.0660,-0.8595,0.983
15.059000,-0.5167,0.1609,-0.9088,1.058
15.061000,-0.5252,0.1827,-0.9350,1.088
15.063000,-0.5907,0.1853,-1.0123,1.187
15.068000,-0.6094,0.2177,-1.0760,1.256
15.073000,-0.5947,0.2753,-1.0747,1.259
15.095000,-0.5145,0.3485,-1.0755,1.242
15.096000,-0.4431,0.3416,-0.9923,1.139
15.097000,-0.3373,0.3659,-0.9270,1.052
15.097000,-0.1959,0.3675,-0.9024,0.994
15.099000,-0.0559,0.3428,-0.8862,0.952
15.104000,0.0467,0.3170,-0.8531,0.911
15.110000,0.1381,0.3153,-0.8272,0.896
15.114000,0.2313,0.2622,-0.8168,0.888
15.119000,0.3096,0.2465,-0.8885,0.973
15.126000,0.4051,0.2155,-0.8990,1.009
15.129000,0.5044,0.2482,-0.8854,1.049
15.134000,0.5844,0.3039,-0.9072,1.121
15.140000,0.6846,0.3313,-0.9442,1.212
15.144000,0.8231,0.3447,-0.8564,1.237
15.149000,0.9213,0.3583,-0.7647,1.250
15.155000,1.0257,0.3232,-0.6522,1.258
15.172000,1.0686,0.3901,-0.6155,1.293
15.173000,1.1252,0.4261,-0.6016,1.345
15.174000,1.1435,0.6599,-0.5996,1.450
15.176000,1.1427,1.1678,-0.5476,1.723
15.203000,1.1364,1.7753,-0.4666,2.159
15.204000,1.2640,2.2232,-0.4397,2.595
15.205000,1.4802,2.4514,-0.5048,2.908
15.206000,1.6707,2.4662,-0.5770,3.034
15.207000,1.7462,2.4439,-0.6824,3.080
15.209000,1.6550,2.4319,-0.6505,3.013
15.218000,1.4187,2.4632,-0.5419,2.894
15.220000,1.1055,2.5689,-0.2688,2.810
15.221000,0.7597,2.6260,-0.0254,2.734
15.230000,0.4306,2.6015,0.2483,2.649
15.231000,0.1417,2.4801,0.4479,2.524
15.235000,-0.0979,2.2826,0.5634,2.353
15.241000,-0.3475,1.9969,0.5229,2.093
15.246000,-0.5494,1.6660,0.4960,1.823
15.250000,-0.7364,1.3111,0.4413,1.567
15.256000,-0.9811,1.0337,0.3918,1.478
15.270000,-1.2365,0.8633,0.3123,1.540
15.271000,-1.3682,0.7581,0.1685,1.573
15.272000,-1.4219,0.6128,0.3407,1.585
15.296000,-1.5787,0.5768,0.4050,1.729
15.297000,-1.6010,0.4494,0.4961,1.735
15.298000,-1.6053,0.3097,0.5800,1.735
15.298000,-1.6397,0.1426,0.6060,1.754
15.299000,-1.6243,-0.0830,0.6452,1.750
15.301000,-1.5368,-0.3274,0.6699,1.708
15.306000,-1.4670,-0.4829,0.6249,1.666
15.311000,-1.4725,-0.5533,0.5757,1.675
15.316000,-1.4671,-0.5698,0.5790,1.677
15.321000,-1.4093,-0.6019,0.6259,1.655
15.326000,-1.4043,-0.6364,0.7022,1.694
15.331000,-1.3386,-0.7605,0.8021,1.736
15.336000,-1.2790,-0.8855,0.8853,1.790
15.343000,-1.2950,-0.9791,0.9604,1.886
15.347000,-1.2861,-0.9983,1.0527,1.939
15.352000,-1.2213,-1.0759,1.1334,1.983
15.357000,-1.2096,-1.1353,1.2070,2.052
15.362000,-1.1877,-1.1250,1.2628,2.067
15.367000,-1.1246,-1.1575,1.3152,2.082
15.372000,-1.0287,-1.1575,1.3519,2.056
15.391000,-0.9798,-1.1299,1.4206,2.063
15.393000,-0.9036,-1.0653,1.5175,2.063
15.393000,-0.8684,-1.0043,1.6080,2.085
15.397000,-0.8641,-0.9328,1.7329,2.149
15.398000,-0.8143,-0.8518,1.8264,2.174
15.403000,-0.7703,-0.7626,1.8801,2.170
15.408000,-0.7510,-0.6749,1.9601,2.205
15.427000,-0.7431,-0.5528,2.0363,2.237
15.428000,-0.7646,-0.4466,2.0561,2.239
15.428000,-0.7257,-0.2906,2.1128,2.253
15.429000,-0.7256,-0.1625,2.1118,2.239
15.433000,-0.7105,-0.0288,2.0914,2.209
15.438000,-0.6496,0.1893,2.0203,2.131
15.444000,-0.6316,0.3914,1.9582,2.094
15.448000,-0.5501,0.6063,1.9264,2.093
15.453000,-0.4984,0.8923,1.8580,2.121
15.458000,-0.4510,1.1730,1.8694,2.253
15.463000,-0.4021,1.4280,1.7752,2.313
15.468000,-0.3515,1.6658,1.7240,2.423
15.473000,-0.3415,1.8350,1.6893,2.517
15.489000,-0.3099,1.9143,1.5541,2.485
15.491000,-0.3042,1.9011,1.4112,2.387
15.492000,-0.2887,1.9104,1.3559,2.360
15.518000,-0.3280,1.8165,1.2407,2.224
15.519000,-0.3621,1.5919,1.1014,1.969
15.519000,-0.4587,1.4161,1.0863,1.843
15.520000,-0.5557,1.2770,1.0517,1.745
15.520000,-0.6231,1.1926,1.0408,1.701
15.520000,-0.7066,1.0936,1.0647,1.682
15.523000,-0.7394,1.0099,1.0639,1.643
15.530000,-0.7538,0.9500,1.0579,1.609
15.534000,-0.7535,0.9211,1.0132,1.563
15.539000,-0.7489,0.8694,0.9301,1.477
15.544000,-0.7308,0.8689,0.8900,1.443
15.548000,-0.7302,0.7666,0.8460,1.355
15.554000,-0.7721,0.7036,0.7228,1.270
15.560000,-0.7919,0.6107,0.6508,1.193
15.564000,-0.7993,0.5416,0.6227,1.149
15.569000,-0.7882,0.4053,0.6015,1.071
15.574000,-0.7980,0.2225,0.5981,1.022
15.579000,-0.7930,0.0816,0.6832,1.050
15.584000,-0.7813,-0.0605,0.7601,1.092
15.589000,-0.8085,-0.1510,0.8135,1.157
15.609000,-0.7861,-0.2917,0.8124,1.167
15.610000,-0.7405,-0.3903,0.8133,1.167
15.611000,-0.7186,-0.4625,0.8171,1.182
15.613000,-0.6630,-0.5368,0.8096,1.176
15.615000,-0.6769,-0.5967,0.8636,1.249
15.620000,-0.6119,-0.6096,0.8869,1.238
15.624000,-0.5522,-0.6151,0.8772,1.205
15.640000,-0.5335,-0.6026,0.9158,1.219
15.641000,-0.4866,-0.5945,0.9547,1.225
15.642000,-0.4236,-0.5408,0.9699,1.189
15.654000,-0.3734,-0.5131,0.9653,1.155
15.655000,-0.3322,-0.4745,1.0076,1.162
15.656000,-0.2927,-0.4465,0.9926,1.127
15.666000,-0.2454,-0.4100,0.9671,1.079
15.667000,-0.1650,-0.3890,0.9846,1.071
15.670000,-0.1270,-0.2997,0.9972,1.049
15.675000,-0.0809,-0.2009,1.0431,1.065
15.681000,-0.0545,-0.0913,1.0245,1.030
15.686000,-0.0132,-0.0151,0.9569,0.957
15.690000,-0.0014,0.0468,0.9490,0.950
15.707000,0.0397,0.1279,0.8739,0.884
15.708000,0.0861,0.1649,0.9062,0.925
15.710000,0.0971,0.2114,0.8868,0.917
15.713000,0.1289,0.2402,0.8758,0.917
15.716000,0.1292,0.2462,0.8631,0.907
15.721000,0.1242,0.2500,0.8550,0.899
15.738000,0.1328,0.2946,0.8302,0.891
15.739000,0.1539,0.2844,0.8052,0.868
15.740000,0.1884,0.2565,0.8258,0.885
15.740000,0.2042,0.2395,0.7974,0.857
15.750000,0.2241,0.2324,0.7462,0.813
15.751000,0.2626,0.1955,0.6592,0.736
15.756000,0.3207,0.1995,0.5845,0.696
15.771000,0.3353,0.1689,0.5253,0.646
15.773000,0.3590,0.1373,0.4518,0.593
15.773000,0.3966,0.1896,0.3914,0.589
15.782000,0.4361,0.1868,0.3082,0.566
15.783000,0.4333,0.1722,0.2129,0.513
15.787000,0.4386,0.1146,0.1258,0.470
15.792000,0.4447,0.1264,0.1533,0.487
15.797000,0.4590,0.0964,0.0870,0.477
15.802000,0.4362,0.1058,0.0525,0.452
15.807000,0.4003,0.0793,0.0847,0.417
15.821000,0.3826,0.0491,0.1166,0.403
15.822000,0.3565,0.0070,0.1113,0.374
15.823000,0.3557,-0.0387,0.1361,0.383
15.847000,0.3575,-0.0807,0.1683,0.403
15.848000,0.3596,-0.1682,0.2039,0.446
15.849000,0.3859,-0.2173,0.2659,0.517
15.849000,0.3885,-0.2510,0.2899,0.546
15.850000,0.3903,-0.3336,0.3405,0.616
15.852000,0.4008,-0.3982,0.3939,0.689
15.857000,0.4091,-0.4221,0.4214,0.723
15.863000,0.4161,-0.4804,0.4364,0.771
15.868000,0.4445,-0.5123,0.4446,0.811
15.872000,0.4703,-0.5489,0.4279,0.840
15.878000,0.5485,-0.5399,0.4319,0.883
15.883000,0.5798,-0.5655,0.4478,0.925
15.887000,0.6059,-0.5587,0.4113,0.921
15.892000,0.6853,-0.5577,0.4012,0.970
15.897000,0.7151,-0.5267,0.4198,0.982
15.902000,0.7684,-0.5015,0.3965,1.000
15.907000,0.8142,-0.4823,0.3783,1.019
15.925000,0.8762,-0.4331,0.4402,1.072
15.926000,0.9258,-0.3623,0.4810,1.104
15.927000,0.9715,-0.3511,0.4828,1.140
15.930000,1.0108,-0.3291,0.5294,1.188
15.933000,1.0274,-0.2722,0.5624,1.202
15.938000,1.0643,-0.2357,0.5802,1.235
15.963000,1.0593,-0.2362,0.5903,1.236
15.964000,1.0652,-0.2187,0.6464,1.265
15.964000,1.0794,-0.1940,0.7341,1.320
15.965000,1.0937,-0.2530,0.7764,1.365
15.965000,1.0494,-0.2999,0.7997,1.353
15.969000,1.0616,-0.2345,0.8395,1.374
15.973000,1.0209,-0.2218,0.8013,1.317
15.979000,1.0049,-0.2245,0.6887,1.239
15.984000,1.0518,-0.2235,0.6213,1.242
15.989000,1.0859,-0.1745,0.5164,1.215
