time,ax,ay,az,aT
0.005000,-0.3364,0.3865,0.7619,0.918
0.006000,-0.1383,0.3913,0.8128,0.913
0.006000,0.0725,0.2578,0.4982,0.566
0.006000,0.2532,0.0063,0.1266,0.283
0.012000,0.3208,-0.2101,-0.2285,0.446
0.013000,0.3401,-0.3634,-0.4887,0.698
0.018000,0.3529,-0.4174,-0.6687,0.864
0.024000,0.3526,-0.3087,-0.6828,0.828
0.045000,0.3535,-0.2003,-0.6767,0.789
0.045000,0.4010,-0.1049,-0.4720,0.628
0.046000,0.3618,-0.1224,-0.3658,0.529
0.046000,0.0908,-0.3427,-0.3337,0.487
0.065000,0.0206,-0.2962,-0.2305,0.376
0.066000,0.2141,-0.1715,-0.2520,0.372
0.067000,0.3092,-0.0884,-0.2602,0.414
0.068000,0.3905,-0.0616,-0.3062,0.500
0.069000,0.4899,-0.0491,-0.3230,0.589
0.074000,0.4978,-0.0637,-0.2479,0.560
0.080000,0.4350,-0.0693,-0.2186,0.492
0.084000,0.3031,-0.0481,-0.0307,0.308
0.089000,0.1034,0.0230,0.3566,0.372
0.096000,-0.0810,0.0945,0.7528,0.763
0.100000,-0.2547,0.1310,0.9635,1.005
0.105000,-0.3917,0.1723,1.0496,1.133
0.120000,-0.4838,0.2520,1.1570,1.279
0.120000,-0.5530,0.3049,1.3582,1.498
0.121000,-0.5019,0.3515,1.4829,1.605
0.125000,-0.4766,0.4210,1.3603,1.502
0.135000,-0.3874,0.4346,1.0825,1.229
0.136000,-0.2243,0.3248,0.8578,0.944
0.140000,-0.1432,0.2882,0.5577,0.644
0.146000,-0.1652,0.3240,0.4058,0.545
0.150000,-0.1456,0.3631,0.2990,0.492
0.156000,0.0014,0.2741,0.2059,0.343
0.160000,0.1284,0.2148,0.1174,0.276
0.165000,0.0896,0.2231,0.0707,0.251
0.171000,-0.0213,0.2220,0.0518,0.229
0.176000,0.0194,0.1790,0.0593,0.190
0.181000,0.0930,0.1860,0.1201,0.240
0.186000,0.1143,0.1804,0.2006,0.293
0.191000,0.1905,0.1448,0.3837,0.452
0.196000,0.2710,0.0779,0.5261,0.597
0.201000,0.2823,0.0184,0.6149,0.677
0.206000,0.2793,-0.0670,0.6214,0.685
0.211000,0.3351,-0.1447,0.5864,0.691
0.216000,0.4231,-0.2087,0.4942,0.683
0.221000,0.4732,-0.1951,0.3996,0.649
0.227000,0.5165,-0.1932,0.4028,0.683
0.232000,0.5203,-0.1885,0.4687,0.725
0.237000,0.5129,-0.2143,0.5458,0.779
0.242000,0.5202,-0.2705,0.4833,0.760
0.257000,0.4546,-0.2720,0.4798,0.715
0.258000,0.4177,-0.3240,0.4370,0.686
0.259000,0.4010,-0.2827,0.3789,0.620
0.262000,0.3591,-0.2236,0.3973,0.580
0.267000,0.3204,-0.2374,0.4301,0.586
0.272000,0.3225,-0.2246,0.4435,0.593
0.278000,0.3337,-0.2068,0.3610,0.533
0.283000,0.3771,-0.2555,0.2604,0.525
0.287000,0.3849,-0.2580,0.1331,0.482
0.292000,0.4052,-0.2415,0.0209,0.472
0.297000,0.4438,-0.2058,-0.0729,0.495
0.302000,0.4675,-0.2143,-0.0693,0.519
0.307000,0.4570,-0.2323,-0.1455,0.533
0.312000,0.4293,-0.2326,-0.1958,0.526
0.318000,0.3757,-0.1759,-0.2286,0.474
0.322000,0.3752,-0.1833,-0.2677,0.496
0.338000,0.3983,-0.2050,-0.2612,0.519
0.339000,0.4146,-0.1742,-0.2019,0.493
0.339000,0.3906,-0.1453,-0.0669,0.422
0.342000,0.4167,-0.1496,0.1297,0.461
0.356000,0.4090,-0.2127,0.1906,0.499
0.357000,0.3662,-0.2640,0.1855,0.488
0.357000,0.2941,-0.2208,0.1204,0.387
0.371000,0.2178,-0.2195,0.1434,0.341
0.372000,0.1573,-0.1320,0.2305,0.309
0.373000,0.1346,-0.1219,0.2129,0.280
0.384000,0.0910,-0.1315,0.1766,0.238
0.385000,0.0840,-0.1686,0.1140,0.220
0.388000,0.1075,-0.1554,0.0719,0.202
0.395000,0.1232,-0.1369,0.0535,0.192
0.398000,0.1825,-0.1093,0.0346,0.215
0.403000,0.2542,-0.0603,-0.0292,0.263
0.408000,0.2079,-0.0876,-0.1094,0.251
0.413000,0.1552,-0.0415,-0.1726,0.236
0.418000,0.1176,-0.0522,-0.2143,0.250
0.424000,0.1228,-0.0334,-0.2632,0.292
0.429000,0.1277,-0.0066,-0.1794,0.220
0.434000,0.1550,-0.0042,-0.1353,0.206
0.439000,0.1363,-0.0311,-0.1294,0.191
0.445000,0.1089,-0.0922,-0.1402,0.200
0.449000,0.1268,-0.2018,-0.1185,0.266
0.454000,0.1218,-0.2893,-0.1002,0.330
0.460000,0.0926,-0.2703,-0.0815,0.297
0.474000,0.1640,-0.2562,-0.0670,0.311
0.475000,0.1419,-0.2480,0.0232,0.287
0.476000,0.1399,-0.2091,0.1165,0.277
0.483000,0.1172,-0.1352,0.1975,0.266
0.483000,0.0958,-0.0707,0.2773,0.302
0.490000,0.0529,-0.0279,0.3809,0.386
0.496000,-0.0563,0.0621,0.5734,0.579
0.500000,-0.1216,0.1388,0.7916,0.813
0.505000,-0.1965,0.1134,1.0681,1.092
0.510000,-0.2779,0.1034,1.2348,1.270
0.515000,-0.4025,-0.0651,1.4142,1.472
0.520000,-0.4499,-0.2338,2.6661,2.714
0.526000,-0.3897,-0.0389,3.8853,3.905
0.531000,-0.3828,0.0240,2.7204,2.747
0.535000,-0.4728,-0.3791,0.9591,1.135
0.540000,-0.6727,-0.7412,-0.1146,1.007
0.546000,-0.8462,-0.7522,-0.8197,1.398
0.552000,-0.8700,-0.5236,-1.0058,1.429
0.556000,-0.6801,-0.2563,-0.7419,1.039
0.560000,-0.3509,-0.0408,-0.3915,0.527
0.571000,-0.1854,0.0753,-0.1450,0.247
0.572000,-0.1850,0.1550,-0.1622,0.291
0.578000,-0.8249,0.2750,-0.4549,0.981
0.591000,-1.5757,0.3737,-0.3512,1.657
0.591000,-1.4460,0.4743,0.1861,1.533
0.592000,-1.0797,0.5171,-0.2274,1.219
0.606000,-0.9407,0.3111,-0.7313,1.231
0.607000,-0.5425,0.3615,-0.2584,0.701
0.607000,-0.0598,0.5409,-0.3993,0.675
0.612000,0.2904,0.4318,-0.5702,0.772
0.616000,0.3576,0.0868,-0.5839,0.690
0.621000,0.2596,-0.2206,-0.6945,0.774
0.626000,0.0853,-0.4158,-0.7945,0.901
0.631000,-0.0974,-0.4326,-0.7586,0.879
0.636000,-0.2691,-0.3787,-0.7376,0.872
0.640000,-0.3748,-0.2528,-0.7015,0.835
0.648000,-0.3635,-0.2070,-0.6206,0.748
0.652000,-0.2790,-0.1114,-0.5972,0.668
0.655000,-0.1275,-0.1445,-0.7016,0.728
0.664000,0.0026,-0.1351,-0.7664,0.778
0.666000,0.0552,-0.1867,-0.7890,0.813
0.671000,0.2042,-0.2733,-0.7824,0.854
0.675000,0.3675,-0.3938,-0.7847,0.952
0.686000,0.4142,-0.4957,-0.7422,0.984
0.687000,0.4545,-0.5521,-0.6569,0.971
0.691000,0.4839,-0.5871,-0.5552,0.942
0.702000,0.4450,-0.5966,-0.3517,0.823
0.703000,0.4583,-0.6051,-0.1775,0.780
0.706000,0.3639,-0.5363,-0.1557,0.667
0.712000,0.2968,-0.4918,-0.1712,0.599
0.716000,0.1732,-0.4298,-0.1987,0.504
0.722000,0.1116,-0.3076,-0.2394,0.405
0.726000,0.1957,-0.2661,-0.3448,0.477
0.731000,0.1884,-0.2412,-0.5283,0.611
0.737000,0.1487,-0.2241,-0.5966,0.654
0.742000,0.1967,-0.2073,-0.6217,0.684
0.747000,0.1666,-0.2155,-0.6733,0.726
0.752000,0.0515,-0.2399,-0.7301,0.770
0.757000,-0.0213,-0.2568,-0.7095,0.755
0.764000,-0.0143,-0.2649,-0.6154,0.670
0.768000,0.0420,-0.2730,-0.4714,0.546
0.773000,0.0990,-0.2989,-0.3336,0.459
0.791000,0.1214,-0.3343,-0.1494,0.386
0.792000,0.1713,-0.3852,-0.0060,0.422
0.792000,0.3090,-0.3834,0.2795,0.566
0.799000,0.3937,-0.4249,0.5399,0.792
0.800000,0.3870,-0.5187,0.6611,0.925
0.803000,0.3390,-0.5130,0.6060,0.863
0.809000,0.2427,-0.5369,0.4934,0.769
0.813000,0.1707,-0.4671,0.4259,0.655
0.818000,0.1757,-0.3833,0.3901,0.574
0.823000,0.2053,-0.3096,0.3559,0.514
0.829000,0.1978,-0.2493,0.3030,0.439
0.833000,0.1127,-0.2145,0.2529,0.350
0.839000,0.0577,-0.1691,0.1110,0.210
0.844000,0.1014,-0.1728,-0.0247,0.202
0.848000,0.0599,-0.1056,-0.0527,0.132
0.854000,-0.0285,0.0096,-0.0821,0.087
0.859000,-0.0765,0.0294,-0.1512,0.172
0.863000,-0.0886,0.0257,-0.2336,0.251
0.869000,-0.0250,0.0356,-0.2528,0.257
0.874000,0.0831,0.0229,-0.2831,0.296
0.891000,0.0957,0.0500,-0.2453,0.268
0.892000,0.1071,0.1262,-0.2052,0.264
0.893000,0.1232,0.1679,-0.1822,0.277
0.915000,0.0805,0.1289,-0.1274,0.198
0.916000,0.0916,0.0607,-0.1221,0.164
0.917000,0.1598,0.0375,-0.0885,0.186
0.918000,0.1848,0.0003,-0.0720,0.198
0.919000,0.1942,-0.0698,-0.1037,0.231
0.919000,0.2035,-0.1576,-0.1140,0.281
0.925000,0.2234,-0.1934,-0.0887,0.308
0.930000,0.1520,-0.2050,0.0537,0.261
0.935000,0.1451,-0.1855,0.1385,0.273
0.939000,0.2215,-0.1509,0.1828,0.324
0.946000,0.2943,-0.1085,0.1318,0.340
0.951000,0.2559,-0.0833,0.0944,0.285
0.954000,0.2332,-0.0546,0.0307,0.241
0.960000,0.1697,-0.0450,-0.0917,0.198
0.965000,0.0254,0.0213,-0.0517,0.061
0.970000,-0.0782,0.0915,-0.0645,0.137
0.975000,-0.1235,0.1154,-0.1278,0.212
0.983000,-0.2146,0.1865,-0.2105,0.354
0.985000,-0.2429,0.2574,-0.2579,0.438
0.990000,-0.3403,0.2971,-0.2738,0.528
1.011000,-0.3798,0.3177,-0.2462,0.553
1.013000,-0.3935,0.3700,-0.1557,0.562
1.013000,-0.3324,0.3619,-0.1554,0.515
1.014000,-0.3420,0.3720,-0.2127,0.548
1.014000,-0.3060,0.3548,-0.2138,0.515
1.021000,-0.1913,0.3235,-0.0979,0.388
1.026000,-0.0903,0.2205,-0.0454,0.243
1.032000,-0.0477,0.1642,0.0693,0.184
1.040000,-0.1102,0.1277,0.1701,0.240
1.040000,-0.1380,0.0716,0.1853,0.242
1.047000,-0.1383,0.0030,0.1832,0.230
1.051000,-0.0876,-0.0397,0.2438,0.262
1.056000,-0.1309,-0.0985,0.4103,0.442
1.062000,-0.1330,-0.0981,0.3981,0.431
1.066000,-0.0152,-0.0302,0.3126,0.314
1.071000,0.0035,-0.0466,0.3138,0.317
1.076000,-0.0737,0.0607,0.5272,0.536
1.081000,-0.1267,0.0531,0.5416,0.559
1.086000,-0.0234,0.0082,0.4747,0.475
1.091000,0.0711,-0.0596,0.4339,0.444
1.107000,0.0655,-0.1874,0.3106,0.369
1.107000,0.1335,-0.2899,0.1380,0.348
1.108000,0.2331,-0.2531,-0.0098,0.344
1.112000,0.2218,-0.1979,0.0592,0.303
1.128000,0.1769,-0.0213,0.2519,0.309
1.130000,0.0413,0.1367,0.2513,0.289
1.130000,-0.1545,0.1914,-0.0706,0.256
1.134000,-0.2393,0.2444,-0.4872,0.595
1.137000,-0.1470,0.3051,-0.5499,0.646
1.142000,0.0203,0.3756,-0.2243,0.438
1.147000,0.1487,0.4506,0.2209,0.523
1.152000,0.2517,0.3747,0.3452,0.568
1.157000,0.3030,0.1953,0.3169,0.480
1.163000,0.1708,0.0871,0.1590,0.249
1.167000,-0.4116,0.3609,-0.1660,0.572
1.172000,-0.1098,0.1715,-0.1524,0.254
1.177000,0.4021,-0.1807,-0.0912,0.450
1.183000,0.6224,-0.3913,-0.0537,0.737
1.187000,0.7013,-0.4765,0.1997,0.871
1.192000,0.6831,-0.4689,0.4230,0.930
1.198000,0.5979,-0.3966,0.5209,0.887
1.202000,0.3928,-0.2462,0.6072,0.764
1.208000,0.1667,-0.0979,0.6665,0.694
1.222000,0.0666,0.0281,0.6521,0.656
1.223000,0.1876,0.1730,0.5003,0.562
1.224000,0.3829,0.1578,0.7049,0.817
1.228000,0.4594,0.0601,0.9131,1.024
1.245000,0.4722,-0.0099,0.7318,0.871
1.247000,0.2702,-0.0508,0.6058,0.665
1.247000,0.0427,-0.0356,0.5177,0.521
1.250000,0.0065,-0.0263,0.3919,0.393
1.253000,0.0258,-0.0766,0.1313,0.154
1.258000,-0.1002,-0.1796,-0.4107,0.459
1.265000,-0.1453,-0.2120,-0.6603,0.709
1.268000,-0.1022,-0.1199,-0.5978,0.618
1.273000,-0.0393,0.0659,-0.5289,0.534
1.279000,-0.1325,0.2001,-0.5022,0.557
1.284000,-0.1688,0.2658,-0.4519,0.551
1.289000,-0.1068,0.2816,-0.4392,0.533
1.294000,0.0923,0.4759,-0.3041,0.572
1.299000,0.5333,0.4520,0.1465,0.714
1.303000,0.2648,0.1111,0.2895,0.408
1.309000,-0.2928,-0.0976,-0.0847,0.320
1.314000,-0.3208,-0.1714,0.1544,0.395
1.319000,-0.2898,-0.1150,0.0414,0.315
1.324000,-0.5476,0.0788,-0.2228,0.596
1.330000,-0.6545,0.2079,-0.0046,0.687
1.334000,-0.5517,0.1765,0.1424,0.597
1.339000,-0.3655,0.1104,0.1057,0.396
1.344000,-0.2208,0.0911,0.0900,0.255
1.359000,-0.1772,0.0872,0.1849,0.271
1.360000,-0.2291,0.0188,0.1318,0.265
1.361000,-0.2350,-0.0991,0.0629,0.263
1.364000,-0.1886,-0.1634,0.0425,0.253
1.370000,-0.1086,-0.2505,0.0440,0.277
1.375000,-0.0299,-0.3423,0.1006,0.358
1.381000,0.0606,-0.3835,0.1546,0.418
1.385000,0.0490,-0.3642,0.0741,0.375
1.390000,-0.0001,-0.3125,-0.0312,0.314
1.395000,-0.0661,-0.2021,-0.2393,0.320
1.400000,-0.0106,-0.1476,-0.3640,0.393
1.405000,0.1261,-0.1576,-0.2604,0.330
1.411000,0.1953,-0.1017,-0.0533,0.227
1.417000,0.1675,0.0019,-0.0304,0.170
1.420000,0.0199,0.1974,-0.2010,0.282
1.425000,-0.2254,0.4038,-0.4446,0.642
1.442000,-0.2856,0.4002,-0.4579,0.672
1.443000,-0.1730,0.3698,-0.3394,0.531
1.444000,-0.0293,0.3650,-0.2357,0.435
1.467000,0.0364,0.4099,-0.1412,0.435
1.468000,0.0551,0.6847,-0.0818,0.692
1.468000,0.1397,1.0713,-0.2024,1.099
1.469000,0.2589,0.9553,-0.4373,1.082
1.470000,0.3731,0.8202,-0.3837,0.979
1.470000,0.5673,0.8110,-0.3172,1.039
1.476000,0.6314,0.6835,-0.2819,0.972
1.481000,0.5908,0.5751,-0.2431,0.860
1.486000,0.5370,0.4512,-0.2249,0.737
1.491000,0.4722,0.4292,-0.1017,0.646
1.498000,0.3969,0.4193,0.0164,0.578
1.501000,0.3537,0.4098,0.0396,0.543
1.506000,0.2001,0.4601,0.0593,0.505
1.511000,0.0354,0.5859,0.0681,0.591
1.516000,-0.0710,0.6091,0.0229,0.614
1.521000,-0.0912,0.5846,0.0481,0.594
1.526000,-0.0229,0.5496,0.2585,0.608
1.531000,0.0369,0.4559,0.5396,0.707
1.537000,0.0328,0.3154,0.6861,0.756
1.541000,0.0109,0.1950,0.7617,0.786
1.548000,-0.0589,0.1222,0.7978,0.809
1.551000,-0.1011,0.0753,0.9666,0.975
1.557000,-0.1193,-0.0118,0.9562,0.964
1.562000,-0.1565,-0.0961,0.8601,0.879
1.577000,-0.1795,-0.1684,0.8756,0.910
1.579000,-0.1291,-0.1608,1.0899,1.109
1.580000,-0.0315,-0.0799,1.3254,1.328
1.583000,0.0573,-0.0793,1.5072,1.510
1.587000,0.0754,-0.1017,1.5001,1.505
1.592000,0.0667,-0.1545,1.4506,1.460
1.605000,0.0581,-0.1572,1.5651,1.574
1.606000,0.1047,-0.1539,1.7822,1.792
1.613000,0.1193,-0.1485,1.8836,1.893
1.618000,0.1494,-0.1119,1.8764,1.886
1.620000,0.1946,0.0016,1.9495,1.959
1.623000,0.2455,0.0617,1.9926,2.009
1.628000,0.3310,0.0998,1.9757,2.006
1.638000,0.4536,0.0830,1.9905,2.043
1.639000,0.5916,0.0784,2.0548,2.140
1.643000,0.5633,0.1933,1.5541,1.664
1.651000,0.4976,0.6658,0.9893,1.292
1.652000,1.6371,1.2802,4.9852,5.401
1.658000,2.5855,1.1376,5.6579,6.324
1.672000,1.3606,0.7468,1.4575,2.129
1.673000,0.0588,0.8351,0.1388,0.849
1.674000,0.1021,0.9757,-0.0798,0.984
1.678000,0.5280,1.1525,1.5553,2.007
1.690000,1.4993,0.9436,4.9028,5.213
1.690000,1.1322,0.3663,2.5057,2.774
1.693000,0.0662,0.1476,1.2299,1.241
1.699000,-0.3736,0.0700,0.7014,0.798
1.703000,-0.1324,0.2120,2.0875,2.102
1.709000,0.4393,0.4696,2.9815,3.050
1.715000,0.2718,0.4351,2.1418,2.202
1.719000,-0.2462,0.3804,1.1224,1.210
1.723000,-0.5486,0.3675,0.8225,1.055
1.729000,-0.7609,0.1810,0.6315,1.005
1.733000,-0.9282,-0.1416,0.5946,1.111
1.738000,-0.9003,-0.4422,0.8646,1.324
1.743000,-0.7423,-0.7102,1.1889,1.571
1.750000,-0.6595,-0.8904,1.2361,1.660
1.755000,-0.7022,-0.9484,1.2090,1.689
1.759000,-0.7147,-0.8828,1.1600,1.623
1.777000,-0.7474,-0.6747,1.2090,1.573
1.779000,-0.8308,-0.3751,1.0825,1.415
1.779000,-1.0503,-0.1050,0.7902,1.319
1.782000,-1.1960,0.2043,0.6324,1.368
1.786000,-1.1967,0.4598,0.6148,1.422
1.790000,-1.1403,0.5728,0.5676,1.397
1.794000,-1.0575,0.5864,0.5055,1.311
1.802000,-1.0132,0.4608,0.3061,1.154
1.804000,-0.9098,0.2811,0.3400,1.011
1.810000,-0.8254,0.1692,0.5605,1.012
1.816000,-0.7755,0.0568,0.6246,0.997
1.820000,-0.7510,-0.1821,0.4353,0.887
1.825000,-0.6436,-0.4297,0.3935,0.868
1.830000,-0.4468,-0.5945,0.5788,0.942
1.835000,-0.2650,-0.7746,0.6800,1.064
1.840000,-0.1819,-1.0130,0.6556,1.220
1.845000,-0.1917,-1.2464,0.4327,1.333
1.850000,-0.0575,-1.4364,0.3962,1.491
1.855000,0.0290,-1.6109,0.3191,1.643
1.860000,0.1200,-1.6830,0.3145,1.716
1.866000,0.1992,-1.6740,0.3150,1.715
1.870000,0.2169,-1.6407,0.3922,1.701
1.875000,0.2052,-1.5786,0.4138,1.645
1.881000,0.1801,-1.5270,0.3847,1.585
1.893000,0.0641,-1.3651,0.4184,1.429
1.894000,-0.1348,-1.1731,0.4252,1.255
1.917000,-0.3099,-1.0059,0.3700,1.116
1.918000,-0.3903,-0.9590,0.4048,1.112
1.918000,-0.4413,-0.9739,0.4613,1.164
1.919000,-0.5440,-1.0942,0.2466,1.247
1.919000,-0.5390,-1.2615,0.1603,1.381
1.921000,-0.4552,-1.4529,0.3047,1.553
1.926000,-0.3019,-1.7043,0.4118,1.779
1.932000,-0.1226,-2.0050,0.4818,2.066
1.936000,-0.0879,-2.2664,0.4702,2.316
1.941000,-0.0395,-2.4002,0.4837,2.449
1.947000,-0.0400,-2.4326,0.5127,2.486
1.951000,-0.0697,-2.4154,0.4366,2.456
1.957000,-0.1126,-2.4203,0.2818,2.439
1.962000,-0.0825,-2.3469,0.1030,2.351
1.967000,-0.0121,-2.2756,0.1012,2.278
1.972000,0.1093,-2.2206,0.1301,2.227
1.976000,0.1529,-2.1067,0.0296,2.112
1.993000,0.1186,-2.0068,-0.1629,2.017
1.994000,0.0530,-1.8697,-0.2322,1.885
1.994000,0.0667,-1.7491,-0.2595,1.770
1.997000,0.1172,-1.6989,-0.2536,1.722
2.013000,0.1715,-1.6269,-0.2715,1.658
2.014000,0.1489,-1.5596,-0.4130,1.620
2.016000,0.1079,-1.4811,-0.5948,1.600
2.017000,0.1186,-1.4240,-0.6158,1.556
2.022000,0.1776,-1.3211,-0.5800,1.454
2.027000,0.3176,-1.3305,-0.6203,1.502
2.032000,0.3933,-1.3982,-0.6779,1.603
2.037000,0.4636,-1.4619,-0.6800,1.678
2.043000,0.5807,-1.5013,-0.7110,1.760
2.049000,0.6464,-1.4866,-0.6700,1.754
2.053000,0.6414,-1.4595,-0.6583,1.725
2.057000,0.5307,-1.3988,-0.7887,1.691
2.063000,0.4296,-1.2780,-0.7788,1.557
2.069000,0.3709,-1.2159,-0.7157,1.459
2.073000,0.3757,-1.3019,-0.8891,1.621
2.078000,0.3826,-1.4140,-1.0355,1.794
2.083000,0.3988,-1.4744,-1.0630,1.861
2.088000,0.4221,-1.4927,-1.1571,1.935
2.093000,0.4541,-1.4618,-1.2279,1.962
2.112000,0.4904,-1.4511,-1.2021,1.947
2.113000,0.5549,-1.5014,-1.1992,2.000
2.114000,0.6601,-1.5265,-1.1910,2.046
2.114000,0.7592,-1.5742,-1.1645,2.100
2.118000,0.8066,-1.5873,-1.0801,2.082
2.124000,0.8162,-1.5405,-1.1223,2.073
2.128000,0.8453,-1.4198,-1.0907,1.980
2.133000,0.8883,-1.2862,-1.0468,1.881
2.139000,0.9154,-1.1506,-0.9685,1.761
2.144000,0.8986,-1.0668,-1.1635,1.816
2.150000,0.8031,-0.9891,-1.2420,1.779
2.153000,0.7997,-0.9536,-1.2301,1.750
2.160000,0.7996,-0.9649,-1.2494,1.770
2.165000,0.8442,-0.9919,-1.2763,1.824
2.169000,0.8353,-1.0058,-1.1992,1.774
2.174000,0.7815,-0.9756,-1.0711,1.646
2.179000,0.6971,-1.0579,-1.1036,1.680
2.184000,0.6304,-1.1175,-1.2058,1.761
2.189000,0.5839,-1.1688,-1.1631,1.749
2.194000,0.5197,-1.2391,-1.1137,1.745
2.211000,0.4514,-1.2865,-1.0982,1.751
2.212000,0.3195,-1.3088,-1.1000,1.739
2.213000,0.2280,-1.2855,-1.0407,1.670
2.214000,0.1167,-1.2179,-0.9806,1.568
2.233000,-0.0293,-1.1480,-0.9227,1.473
2.234000,-0.2263,-1.1032,-1.1027,1.576
2.235000,-0.3072,-1.1098,-1.2962,1.734
2.236000,-0.2624,-1.1725,-1.2897,1.763
2.240000,-0.1420,-1.1417,-1.1639,1.637
2.245000,0.0528,-1.1539,-0.9959,1.525
2.250000,0.2823,-1.2844,-0.8356,1.558
2.254000,0.4623,-1.2759,-0.7785,1.564
2.260000,0.5380,-1.1633,-0.7284,1.474
2.267000,0.4057,-0.7865,-0.8521,1.229
2.270000,0.2729,-0.0526,-1.3023,1.332
2.275000,0.3987,0.3872,-1.4912,1.591
2.280000,-0.1149,3.4066,-0.4318,3.436
2.286000,-0.6281,5.9540,-0.1452,5.989
2.290000,-0.0394,5.8124,-0.8657,5.877
2.296000,0.7557,5.0862,-0.9640,5.232
2.301000,1.6300,4.1420,-1.4454,4.680
2.306000,2.6359,2.9464,-1.3036,4.163
2.311000,3.1277,2.0840,-0.8753,3.859
2.329000,3.0777,1.6232,-1.1053,3.651
2.330000,2.7574,1.4186,-1.2063,3.327
2.331000,2.3812,1.4032,-1.0759,2.966
2.331000,1.9938,1.4224,-0.9833,2.639
2.336000,1.6558,1.3542,-0.8108,2.288
2.341000,1.4266,1.1307,-0.7440,1.967
2.346000,1.2320,0.8931,-0.7554,1.699
2.351000,1.0035,0.6798,-0.7936,1.449
2.357000,0.8626,0.5563,-0.6654,1.223
2.361000,0.7545,0.5250,-0.3802,0.995
2.367000,0.6363,0.5379,-0.3136,0.890
2.371000,0.4934,0.6357,-0.4156,0.906
2.377000,0.3587,0.7238,-0.5153,0.958
2.383000,0.2613,0.8488,-0.4501,0.996
2.387000,0.2210,1.0083,-0.3298,1.084
2.392000,0.1956,1.0658,-0.2610,1.115
2.397000,0.1429,1.1746,-0.1339,1.191
2.401000,0.1645,1.2281,0.0936,1.243
2.407000,0.1968,1.1868,0.2038,1.220
2.412000,0.1263,1.1287,0.1765,1.149
2.427000,0.0426,1.1387,0.2560,1.168
2.429000,-0.0010,1.1484,0.2829,1.183
2.429000,-0.0774,1.0875,0.2967,1.130
2.454000,-0.0909,0.9453,0.2412,0.980
2.455000,0.0464,0.6656,-0.1296,0.680
2.455000,0.2987,0.4365,0.1089,0.540
2.456000,0.5576,0.3033,0.7093,0.952
2.457000,0.7462,0.1929,1.0019,1.264
2.457000,0.7818,0.1315,1.0092,1.283
2.463000,0.5952,0.0271,0.9717,1.140
2.467000,0.2671,-0.1252,0.8031,0.856
2.473000,0.0482,-0.1889,0.7919,0.816
2.478000,-0.2075,-0.2464,0.9267,0.981
2.483000,-0.5934,-0.1673,0.9157,1.104
2.488000,-1.0222,0.2827,0.9617,1.432
2.493000,-1.3986,0.6298,1.0048,1.834
2.498000,-1.6095,0.7726,1.1344,2.115
2.504000,-1.6420,0.9051,1.1631,2.206
2.507000,-1.4822,0.9495,1.0742,2.062
2.513000,-1.1414,0.9752,1.0635,1.840
2.519000,-0.7213,0.8338,0.8702,1.405
2.523000,-0.2482,0.6045,0.6963,0.955
2.528000,0.0978,0.2668,0.5860,0.651
2.543000,0.3287,-0.0261,0.4515,0.559
2.544000,0.3720,-0.1858,0.3678,0.555
2.544000,0.2928,-0.3418,0.3043,0.543
2.564000,0.2547,-0.5396,0.0599,0.600
2.565000,0.0998,-0.8330,-0.1241,0.848
2.566000,-0.0799,-1.1958,-0.2496,1.224
2.567000,0.0350,-1.7463,-0.1836,1.756
2.571000,0.3078,-2.2487,0.0724,2.271
2.574000,0.3456,-2.6049,0.2458,2.639
2.581000,0.1815,-2.8070,0.1823,2.819
2.585000,0.0452,-3.0774,-0.0646,3.078
2.590000,0.0419,-3.4460,-0.3073,3.460
2.596000,0.1944,-3.8444,-0.2861,3.860
2.598000,0.4009,-4.1974,-0.1930,4.221
2.604000,0.5610,-4.5825,-0.1068,4.618
2.609000,0.7332,-4.7557,-0.2095,4.816
2.615000,0.8269,-4.7209,-0.2981,4.802
2.620000,0.8549,-4.4915,-0.3260,4.584
2.625000,0.8299,-4.1488,-0.3740,4.247
2.630000,0.8388,-3.7958,-0.3669,3.905
2.647000,0.8837,-3.5112,-0.4146,3.644
2.648000,0.8637,-3.2817,-0.6397,3.453
2.649000,0.9770,-3.1369,-0.5834,3.337
2.650000,1.1002,-2.9571,-0.3156,3.171
2.655000,1.1002,-2.6131,-0.2331,2.845
2.660000,0.9012,-2.2448,-0.3622,2.446
2.665000,0.7509,-1.8943,-0.4088,2.078
2.671000,0.6357,-1.5568,-0.3676,1.721
2.676000,0.4162,-1.2250,-0.4276,1.363
2.680000,0.2634,-1.0103,-0.3430,1.099
2.686000,0.1236,-0.7954,-0.1519,0.819
2.689000,-0.1079,-0.6269,-0.1236,0.648
2.695000,-0.3689,-0.6077,-0.1722,0.731
2.701000,-0.5675,-0.6871,-0.2158,0.917
2.706000,-0.8291,-0.8697,-0.1679,1.213
2.710000,-0.9870,-1.0251,-0.1658,1.433
2.715000,-1.1956,-1.0720,-0.1787,1.616
2.721000,-1.5591,-0.9985,-0.2389,1.867
2.726000,-1.9833,-0.7797,-0.5059,2.190
2.731000,-2.1171,-0.5835,-0.5950,2.275
2.736000,-1.9695,-0.5271,-0.4351,2.085
2.741000,-1.6142,-0.3917,-0.3916,1.707
2.745000,-1.2401,-0.3078,-0.5513,1.392
2.763000,-0.8335,-0.2597,-0.6661,1.098
2.764000,-0.3896,-0.3336,-0.6441,0.823
2.765000,-0.0168,-0.2723,-0.3616,0.453
2.769000,0.3566,-0.2934,-0.0983,0.472
2.770000,0.5878,-0.3072,-0.2761,0.718
2.776000,0.5385,-0.3472,-0.4541,0.785
2.781000,0.8761,-0.4505,-0.0282,0.985
2.787000,1.1172,-0.3373,0.1626,1.178
2.792000,1.1400,-0.1799,0.0017,1.154
2.796000,1.0737,0.0731,0.0474,1.077
2.802000,1.0407,0.5769,0.2504,1.216
2.806000,0.8432,1.1388,-0.0743,1.419
2.811000,0.7540,1.6318,-0.2248,1.812
2.819000,0.8578,2.0025,-0.2894,2.198
2.822000,0.9488,2.2437,-0.2566,2.450
2.827000,1.0460,2.3329,-0.2017,2.565
2.833000,1.1041,2.3109,-0.2339,2.572
2.837000,1.1412,2.1943,-0.3201,2.494
2.843000,1.1894,1.9951,-0.5077,2.378
2.848000,1.2922,1.7741,-0.5868,2.272
2.864000,1.4531,1.5373,-0.5025,2.174
2.866000,1.5416,1.3025,-0.4380,2.065
2.866000,1.5823,1.1222,-0.3229,1.967
2.871000,1.4617,0.9605,-0.2407,1.766
2.871000,1.2760,0.8005,-0.3699,1.551
2.878000,1.0504,0.6529,-0.3470,1.285
2.883000,0.8677,0.6741,-0.2451,1.126
2.888000,0.4747,0.8809,-0.2899,1.042
2.893000,0.0033,1.0399,-0.4800,1.145
2.898000,-0.3912,1.0770,-0.6156,1.301
2.903000,-0.5443,1.0128,-0.6853,1.339
2.908000,-0.5691,0.9106,-0.7384,1.303
2.913000,-0.5131,0.8399,-0.5652,1.135
2.919000,-0.3732,0.7208,-0.3793,0.896
2.923000,-0.3773,0.5822,-0.3173,0.763
2.928000,-0.4227,0.4710,-0.5254,0.823
2.933000,-0.3661,0.3429,-0.6383,0.812
2.938000,-0.3345,0.2055,-0.5455,0.672
2.943000,-0.2448,0.0504,-0.4796,0.541
2.948000,-0.2702,0.0021,-0.4402,0.517
2.954000,-0.2314,-0.1211,-0.3443,0.432
2.958000,-0.1341,-0.1874,-0.2154,0.315
2.963000,-0.1370,-0.1445,-0.2031,0.284
2.976000,-0.0955,-0.1526,-0.1875,0.260
2.977000,-0.1220,-0.1112,0.0130,0.166
2.978000,-0.1787,-0.0743,0.1027,0.219
2.997000,-0.3878,-0.0038,0.0430,0.390
2.999000,-0.6518,-0.2369,0.0295,0.694
2.999000,-0.1124,-0.9714,0.2729,1.015
3.000000,-0.0576,-0.6343,-0.1148,0.647
3.011000,-0.1676,-0.1119,0.2830,0.347
3.012000,-0.1823,0.2371,0.6011,0.671
3.013000,-0.2436,0.6282,0.0336,0.675
3.024000,-0.2547,1.0093,-0.1614,1.053
3.025000,-0.4420,1.4207,0.2427,1.508
3.028000,-0.4245,1.6137,0.3116,1.697
3.035000,-0.4220,1.6721,0.2843,1.748
3.039000,-0.4391,1.6387,-0.0470,1.697
3.044000,-0.4843,1.6210,-0.2300,1.707
3.051000,-0.5541,1.5961,-0.1112,1.693
3.054000,-0.4655,1.5198,0.0232,1.590
3.059000,-0.5463,1.3705,-0.1019,1.479
3.064000,-0.3613,1.0671,0.1569,1.138
3.080000,-0.2982,0.8048,0.2353,0.890
3.081000,-0.2061,0.6792,0.1470,0.725
3.082000,-0.1150,0.6460,0.2318,0.696
3.090000,-0.0719,0.5210,0.3559,0.635
3.090000,-0.1680,0.4349,0.2739,0.541
3.094000,-0.1777,0.4358,0.3478,0.585
3.100000,-0.1727,0.4006,0.4509,0.627
3.106000,-0.1971,0.3692,0.6590,0.781
3.110000,-0.2486,0.3751,0.6513,0.792
3.115000,-0.2701,0.2129,0.6524,0.738
3.121000,-0.1796,0.0958,0.7369,0.765
3.125000,0.0674,0.0167,0.9059,0.909
3.130000,0.3278,-0.2179,0.9070,0.989
3.138000,0.4833,-0.4091,0.9348,1.129
3.141000,0.5797,-0.5114,0.8877,1.177
3.145000,0.5451,-0.5930,0.6017,1.005
3.152000,0.4395,-0.7987,0.2811,0.954
3.156000,0.2841,-1.1571,0.1936,1.207
3.161000,0.2854,-1.5935,0.2000,1.631
3.166000,0.1212,-2.0994,-0.0101,2.103
3.171000,-0.1716,-2.7094,-0.0497,2.715
3.176000,-0.1192,-3.3027,-0.1424,3.308
3.180000,0.1812,-3.7813,-0.2326,3.793
3.194000,0.3061,-4.1660,-0.4777,4.204
3.195000,0.1511,-4.3282,-0.6407,4.378
3.198000,0.0024,-4.2850,-0.7587,4.352
3.217000,-0.2996,-3.7118,-0.7304,3.795
3.218000,-0.4268,-3.2516,-0.3710,3.300
3.219000,-0.1202,-3.1874,-0.2834,3.202
3.220000,-0.2974,-2.0542,-0.2516,2.091
3.221000,-1.0858,0.2078,0.2040,1.124
3.227000,-1.6016,3.9059,1.4042,4.449
3.233000,-2.6975,8.5714,1.8638,9.177
3.238000,-3.6068,12.8282,1.8831,13.458
3.242000,-2.5864,14.8167,0.3913,15.046
3.247000,-1.4354,14.2633,-1.0893,14.377
3.253000,-0.1824,10.9500,-2.6643,11.271
3.258000,0.9935,6.3233,-3.6553,7.371
3.262000,1.7306,2.5089,-3.8137,4.882
3.267000,2.1783,-0.4857,-3.7863,4.395
3.273000,2.3185,-3.1995,-3.0304,4.980
3.277000,2.0763,-3.9648,-1.8460,4.841
3.283000,1.5145,-3.7147,-0.7169,4.075
3.298000,0.6448,-2.5057,0.4233,2.622
3.299000,-0.2147,-0.8923,1.4364,1.705
3.300000,-0.6067,0.0930,2.2059,2.290
3.303000,-0.5185,0.3739,2.5339,2.613
3.307000,-0.0556,0.3267,2.5535,2.575
3.313000,0.5395,0.1059,2.2504,2.317
3.319000,1.1090,-0.0916,1.7711,2.092
3.323000,1.4806,-0.1906,1.2536,1.949
3.328000,1.5555,-0.0912,0.6036,1.671
3.333000,1.3642,0.0820,-0.0674,1.368
3.339000,0.3794,0.3856,-0.5011,0.737
3.343000,-0.7759,0.5955,-0.8138,1.272
3.348000,-1.2558,0.4100,-1.0950,1.716
3.353000,-1.5709,0.1503,-1.2687,2.025
3.359000,-1.6325,-0.0904,-1.2354,2.049
3.363000,-1.5423,-0.1438,-0.9314,1.807
3.369000,-1.4575,-0.1361,-0.6329,1.595
3.373000,-1.2605,-0.0370,-0.3167,1.300
3.378000,-1.0844,0.0600,-0.0952,1.090
3.383000,-0.9691,0.1223,0.0687,0.979
3.389000,-0.9067,0.1270,0.1552,0.929
3.393000,-0.8385,0.0154,0.1827,0.858
3.398000,-0.7599,-0.0450,0.1999,0.787
3.413000,-0.6744,-0.0591,0.0941,0.683
3.414000,-0.6502,-0.0928,-0.0202,0.657
3.414000,-0.6296,-0.0805,-0.1146,0.645
3.435000,-0.5840,0.0234,-0.2142,0.623
3.436000,-0.5302,0.0751,-0.3095,0.618
3.437000,-0.5851,0.3475,-0.4382,0.809
3.438000,-0.6175,0.5485,-0.5504,0.993
3.439000,-0.6323,0.4477,-0.2784,0.823
3.445000,-0.6449,0.3529,0.0009,0.735
3.449000,-0.6472,0.3542,0.1010,0.745
3.454000,-0.5535,0.4923,0.1617,0.758
3.459000,-0.4610,0.6270,0.2154,0.808
3.464000,-0.3749,0.6317,0.2391,0.773
3.469000,-0.3050,0.6439,0.2077,0.742
3.475000,-0.3433,0.4553,0.0811,0.576
3.479000,-0.3203,0.2669,0.0681,0.422
3.486000,-0.2577,0.1099,0.1442,0.315
3.489000,-0.2425,0.0152,0.0701,0.253
3.494000,-0.2209,-0.0234,-0.0143,0.223
3.499000,-0.2040,-0.0800,0.0446,0.224
3.505000,-0.1882,-0.2072,0.0276,0.281
3.510000,-0.1903,-0.1624,-0.0451,0.254
3.514000,-0.1826,-0.0640,-0.0075,0.194
3.531000,-0.2215,-0.0029,0.1280,0.256
3.532000,-0.1638,0.0078,0.2390,0.290
3.534000,-0.0366,-0.0007,0.4109,0.412
3.556000,0.0171,-0.0738,0.6036,0.608
3.557000,0.0938,-0.1395,0.7785,0.796
3.557000,0.1827,-0.2110,0.9168,0.958
3.558000,0.2559,-0.2249,1.0165,1.072
3.559000,0.3791,-0.2300,1.0838,1.171
3.559000,0.4363,-0.1715,1.1229,1.217
3.565000,0.4938,-0.1270,1.0441,1.162
3.570000,0.5831,-0.1718,1.0087,1.178
3.575000,0.6697,-0.1469,0.8974,1.129
3.580000,0.7180,-0.1515,0.7821,1.072
3.587000,0.8027,-0.2156,0.6790,1.073
3.591000,0.9174,-0.3201,0.5619,1.122
3.596000,0.9698,-0.3657,0.4805,1.142
3.601000,1.0513,-0.4124,0.3964,1.197
3.605000,1.0954,-0.4485,0.2935,1.220
3.611000,1.1203,-0.4655,0.2100,1.231
3.616000,1.1066,-0.4313,0.1669,1.199
3.631000,1.0947,-0.4451,0.1592,1.192
3.633000,1.1176,-0.4448,0.0947,1.207
3.633000,1.0738,-0.4362,0.1087,1.164
3.657000,1.0482,-0.4026,0.1291,1.130
3.658000,1.0241,-0.3729,0.1767,1.104
3.659000,0.9046,-0.3062,0.2573,0.989
3.660000,0.8175,-0.1979,0.3113,0.897
3.660000,0.7398,-0.1471,0.3830,0.846
3.661000,0.6402,-0.1130,0.4571,0.795
3.666000,0.5193,-0.0718,0.5012,0.725
3.671000,0.4335,-0.0460,0.5238,0.681
3.676000,0.3535,-0.0667,0.5368,0.646
3.681000,0.2864,-0.0741,0.5064,0.587
3.687000,0.2079,-0.1076,0.4807,0.535
3.692000,0.1443,-0.1468,0.3959,0.446
3.696000,0.0605,-0.1761,0.3521,0.398
3.703000,0.0008,-0.1933,0.3313,0.384
3.707000,-0.0526,-0.1792,0.3128,0.364
3.711000,-0.0913,-0.1722,0.2714,0.334
3.717000,-0.1438,-0.1472,0.2248,0.305
3.722000,-0.1875,-0.0994,0.1729,0.274
3.726000,-0.2084,-0.0492,0.1500,0.261
3.732000,-0.2468,-0.0265,0.0892,0.264
3.747000,-0.2838,0.0296,0.0585,0.291
3.748000,-0.2633,0.0379,0.0387,0.269
3.748000,-0.2631,0.0439,-0.0193,0.267
3.753000,-0.3045,0.0596,-0.0615,0.316
3.769000,-0.2814,0.0884,-0.1023,0.312
3.770000,-0.2990,0.1234,-0.1237,0.346
3.770000,-0.2568,0.0950,-0.1475,0.311
3.773000,-0.2790,0.0608,-0.1555,0.325
3.777000,-0.2891,0.0626,-0.1631,0.338
3.782000,-0.2606,0.1230,-0.1395,0.320
3.788000,-0.3000,0.1572,-0.1178,0.359
3.792000,-0.3304,0.2154,-0.1508,0.422
3.797000,-0.3295,0.2258,-0.1499,0.427
3.803000,-0.3843,0.2410,-0.1103,0.467
3.807000,-0.3968,0.2887,-0.0848,0.498
3.812000,-0.3885,0.2540,-0.0682,0.469
3.818000,-0.3683,0.2157,-0.0413,0.429
3.822000,-0.3040,0.1716,0.0270,0.350
3.828000,-0.2967,0.1431,0.0880,0.341
3.833000,-0.2699,0.1277,0.1068,0.317
3.846000,-0.2268,0.1088,0.1618,0.299
3.847000,-0.1715,0.1089,0.2313,0.308
3.848000,-0.0677,0.1151,0.2977,0.326
3.869000,0.0115,0.1105,0.3959,0.411
3.870000,0.0610,0.0928,0.4294,0.444
3.871000,0.1673,0.0787,0.4379,0.475
3.872000,0.2081,0.0982,0.4608,0.515
3.874000,0.2711,0.0938,0.5211,0.595
3.879000,0.3333,0.0704,0.4906,0.597
3.884000,0.4404,0.0469,0.4556,0.635
3.889000,0.5397,-0.0256,0.3991,0.672
3.894000,0.6701,-0.1101,0.3448,0.762
3.899000,0.7958,-0.1781,0.2934,0.867
3.904000,0.9341,-0.2511,0.2056,0.989
3.909000,1.0124,-0.2493,0.1945,1.061
3.914000,1.0738,-0.1917,0.1285,1.098
3.920000,1.1413,-0.1970,0.0803,1.161
3.924000,1.1267,-0.1755,0.0653,1.142
3.929000,0.9791,-0.0888,-0.0137,0.983
3.934000,0.7388,-0.0001,0.0048,0.739
3.940000,0.3725,0.0213,-0.0002,0.373
3.944000,0.1077,-0.0302,-0.0024,0.112
3.950000,-0.0537,-0.0970,-0.0089,0.111
3.966000,-0.1692,-0.1719,-0.0001,0.241
3.967000,-0.2315,-0.1712,0.0312,0.290
3.967000,-0.3190,-0.2063,0.0744,0.387
3.992000,-0.3814,-0.1457,0.0985,0.420
3.993000,-0.4464,-0.1425,0.0872,0.477
3.993000,-0.4794,-0.1380,0.0858,0.506
3.994000,-0.4815,-0.0700,0.0910,0.495
3.995000,-0.5219,0.0051,0.1348,0.539
3.995000,-0.5455,0.0324,0.1781,0.575
4.000000,-0.5572,0.1446,0.1357,0.591
4.006000,-0.5892,0.2016,0.0988,0.631
4.010000,-0.5758,0.2001,0.1497,0.628
4.015000,-0.5923,0.1651,0.0959,0.622
4.021000,-0.6039,0.1804,0.1168,0.641
4.025000,-0.5854,0.1789,0.1873,0.640
4.030000,-0.5659,0.1620,0.1565,0.609
4.035000,-0.5620,0.1224,0.1262,0.589
4.040000,-0.5007,0.0697,0.1382,0.524
4.045000,-0.4862,0.0351,0.1314,0.505
4.050000,-0.4287,-0.0007,0.0996,0.440
4.064000,-0.4420,-0.0902,0.0799,0.458
4.065000,-0.4566,-0.1364,0.0637,0.481
4.066000,-0.4383,-0.1981,0.0343,0.482
4.090000,-0.4014,-0.2405,0.0369,0.469
4.091000,-0.3340,-0.2432,0.0428,0.415
4.092000,-0.2848,-0.2687,0.0066,0.392
4.093000,-0.2478,-0.2223,0.0514,0.337
4.093000,-0.2361,-0.1796,0.0314,0.298
4.096000,-0.2257,-0.1190,0.0661,0.264
4.101000,-0.2658,-0.1026,0.1028,0.303
4.107000,-0.2536,-0.1508,0.0677,0.303
4.111000,-0.2597,-0.0924,0.0840,0.288
4.116000,-0.2699,-0.0376,0.1671,0.320
4.122000,-0.2086,-0.0270,0.2023,0.292
4.126000,-0.2372,-0.0272,0.1670,0.291
4.132000,-0.2180,0.0193,0.1867,0.288
4.138000,-0.2276,0.0430,0.2064,0.310
4.142000,-0.1988,0.0835,0.1797,0.281
4.147000,-0.2538,0.1251,0.1817,0.336
4.152000,-0.2978,0.1272,0.1981,0.380
4.156000,-0.3273,0.1507,0.1777,0.402
4.161000,-0.3458,0.1886,0.1573,0.424
4.167000,-0.3463,0.1821,0.1177,0.409
4.183000,-0.3957,0.1828,0.1415,0.458
4.184000,-0.4355,0.1728,0.0888,0.477
4.185000,-0.4622,0.1496,0.0908,0.494
4.209000,-0.4648,0.1886,0.0436,0.503
4.210000,-0.4356,0.2258,-0.0039,0.491
4.211000,-0.4579,0.2284,0.0080,0.512
4.212000,-0.4503,0.2249,-0.0242,0.504
4.212000,-0.4202,0.2250,-0.0126,0.477
4.213000,-0.4427,0.2192,-0.0189,0.494
4.218000,-0.4593,0.1922,0.0235,0.498
4.224000,-0.4117,0.1629,-0.0058,0.443
4.227000,-0.4038,0.1744,0.0389,0.442
4.233000,-0.3734,0.2119,0.1014,0.441
4.238000,-0.3362,0.1897,0.1150,0.403
4.244000,-0.3159,0.1286,0.1209,0.362
4.248000,-0.3122,0.1012,0.0608,0.334
4.254000,-0.3085,0.1169,-0.0232,0.331
4.258000,-0.2930,0.0968,-0.1345,0.337
4.264000,-0.2860,0.0781,-0.1471,0.331
4.269000,-0.2697,0.0632,-0.1532,0.317
4.274000,-0.2346,0.0604,-0.1733,0.298
4.278000,-0.2202,0.0421,-0.1338,0.261
4.283000,-0.2179,0.0383,-0.1740,0.281
4.302000,-0.2011,0.0179,-0.1453,0.249
4.303000,-0.1832,-0.0167,-0.1252,0.222
4.304000,-0.2078,0.0000,-0.1317,0.246
4.307000,-0.2000,-0.0167,-0.1516,0.252
4.310000,-0.1872,0.0021,-0.1375,0.232
4.313000,-0.2609,-0.0160,-0.1347,0.294
4.318000,-0.2291,-0.0128,-0.1169,0.258
4.328000,-0.2623,-0.0371,-0.1045,0.285
4.329000,-0.3141,-0.0232,-0.0711,0.323
4.333000,-0.3223,-0.0167,-0.0631,0.329
4.343000,-0.2887,-0.0055,-0.0636,0.296
4.344000,-0.2253,0.0067,-0.0250,0.227
4.349000,-0.2914,0.0103,-0.0496,0.296
4.355000,-0.3556,-0.0051,-0.1426,0.383
4.359000,-0.2676,0.0153,-0.1342,0.300
4.364000,-0.2655,0.0129,-0.1235,0.293
4.369000,-0.2537,0.0117,-0.0689,0.263
4.374000,-0.2468,0.0247,-0.0907,0.264
4.379000,-0.2351,0.0197,-0.1112,0.261
4.384000,-0.2010,0.0196,-0.0845,0.219
4.396000,-0.2218,0.0147,-0.0154,0.223
4.397000,-0.1997,0.0146,-0.0409,0.204
4.401000,-0.2003,-0.0188,-0.0449,0.206
4.416000,-0.1985,-0.0127,-0.0215,0.200
4.417000,-0.1672,-0.0174,-0.0281,0.170
4.417000,-0.1395,0.0030,0.0082,0.140
4.420000,-0.1346,-0.0279,0.0146,0.138
4.427000,-0.0906,0.0150,0.0306,0.097
4.430000,-0.0802,-0.0100,0.0407,0.090
4.435000,-0.0925,-0.0099,0.0294,0.098
4.440000,-0.0605,-0.0087,0.0161,0.063
4.445000,-0.0762,0.0080,0.0018,0.077
4.449000,-0.1049,-0.0289,-0.0514,0.120
4.455000,-0.0644,-0.0322,-0.0422,0.083
4.460000,-0.0443,-0.0474,-0.0462,0.080
4.465000,-0.0490,-0.0839,0.0067,0.097
4.471000,0.0058,-0.0430,-0.0190,0.047
4.475000,-0.0205,-0.0476,-0.0004,0.052
4.480000,-0.0154,-0.0450,-0.0010,0.048
4.486000,0.0168,-0.0389,0.0494,0.065
4.498000,0.0515,-0.0317,0.0840,0.104
4.499000,0.0599,-0.0531,0.0437,0.091
4.501000,0.0910,-0.0732,0.0393,0.123
4.523000,0.1303,-0.0813,0.1039,0.185
4.524000,0.1410,-0.1321,0.1134,0.224
4.524000,0.1567,-0.1339,0.1136,0.235
4.525000,0.1616,-0.1190,0.1330,0.241
4.526000,0.2032,-0.1244,0.1323,0.273
4.531000,0.2124,-0.0893,0.1248,0.262
4.536000,0.2358,-0.1092,0.1245,0.288
4.542000,0.2471,-0.1515,0.1136,0.311
4.547000,0.2761,-0.1756,0.0611,0.333
4.552000,0.3512,-0.1912,0.0634,0.405
4.558000,0.3484,-0.2126,0.0750,0.415
4.562000,0.3719,-0.2232,0.0931,0.444
4.567000,0.3968,-0.2378,0.1309,0.481
4.572000,0.4466,-0.2474,0.1256,0.526
4.576000,0.4176,-0.2428,0.1282,0.500
4.582000,0.4710,-0.2489,0.1653,0.558
4.589000,0.4981,-0.2802,0.1699,0.596
4.592000,0.5312,-0.2588,0.1864,0.620
4.597000,0.5593,-0.2517,0.2232,0.653
4.603000,0.6146,-0.2494,0.2721,0.717
4.607000,0.6483,-0.2411,0.2770,0.745
4.613000,0.6410,-0.2027,0.2511,0.718
4.617000,0.7024,-0.1739,0.2961,0.782
4.633000,0.7623,-0.2215,0.3224,0.857
4.634000,0.7983,-0.2081,0.3967,0.915
4.635000,0.8042,-0.1301,0.4007,0.908
4.663000,0.8052,-0.0700,0.4123,0.907
4.664000,0.8203,-0.0507,0.3907,0.910
4.664000,0.8075,-0.0193,0.3789,0.892
4.665000,0.8030,0.0552,0.3744,0.888
4.666000,0.7912,0.1176,0.3197,0.861
4.666000,0.7432,0.1573,0.3057,0.819
4.669000,0.7813,0.2042,0.2952,0.860
4.675000,0.7403,0.2139,0.2702,0.817
4.678000,0.6585,0.2476,0.2725,0.754
4.684000,0.6628,0.2430,0.2590,0.752
4.690000,0.6000,0.2994,0.2394,0.712
4.694000,0.5673,0.3007,0.2473,0.688
4.699000,0.5383,0.2733,0.3087,0.678
4.703000,0.4616,0.2435,0.2863,0.595
4.708000,0.4259,0.2495,0.2575,0.557
4.713000,0.3798,0.2100,0.2326,0.492
4.719000,0.3386,0.2112,0.2687,0.481
4.734000,0.2881,0.1885,0.2738,0.440
4.735000,0.3082,0.1848,0.2276,0.425
4.736000,0.3247,0.1155,0.1910,0.394
4.763000,0.3135,0.0774,0.1787,0.369
4.764000,0.3417,0.0525,0.1823,0.391
4.765000,0.3982,0.0038,0.1346,0.420
4.765000,0.4197,-0.0411,0.1373,0.443
4.766000,0.4504,-0.0919,0.1199,0.475
4.766000,0.4916,-0.1581,0.1302,0.533
4.769000,0.5850,-0.2194,0.1346,0.639
4.774000,0.6242,-0.2577,0.1166,0.685
4.779000,0.6666,-0.3067,0.0976,0.740
4.785000,0.7065,-0.3042,0.0645,0.772
4.790000,0.7390,-0.3195,0.1023,0.812
4.794000,0.7640,-0.3479,0.0816,0.843
4.799000,0.8233,-0.3033,0.0865,0.882
4.804000,0.8226,-0.3435,0.0953,0.897
4.809000,0.8504,-0.3321,0.0889,0.917
4.814000,0.8887,-0.3064,0.0840,0.944
4.820000,0.8587,-0.3022,0.0772,0.914
4.831000,0.8694,-0.3398,0.1534,0.946
4.832000,0.8684,-0.3833,0.1777,0.966
4.835000,0.8614,-0.4040,0.2350,0.980
4.851000,0.8162,-0.4355,0.3040,0.974
4.852000,0.8179,-0.4812,0.3356,1.007
4.853000,0.7612,-0.4694,0.3837,0.973
4.854000,0.7453,-0.4827,0.4424,0.992
4.862000,0.7520,-0.5055,0.4373,1.006
4.865000,0.7625,-0.4887,0.4329,1.004
4.870000,0.7657,-0.4672,0.4373,0.998
4.875000,0.7699,-0.4193,0.4718,0.996
4.880000,0.8002,-0.3893,0.4727,1.008
4.885000,0.8253,-0.3580,0.4421,1.002
4.890000,0.8706,-0.3627,0.3969,1.023
4.896000,0.8885,-0.3471,0.3988,1.034
4.901000,0.9231,-0.3220,0.3496,1.038
4.906000,0.9207,-0.2719,0.2614,0.995
4.911000,0.8527,-0.2052,0.2631,0.916
4.916000,0.7752,-0.1339,0.2589,0.828
4.923000,0.6956,-0.0795,0.2465,0.742
4.926000,0.5719,-0.0097,0.2321,0.617
4.931000,0.4938,0.0767,0.2230,0.547
4.936000,0.4433,0.1116,0.2518,0.522
4.952000,0.3653,0.1296,0.2395,0.456
4.955000,0.3295,0.2157,0.2367,0.459
4.956000,0.3465,0.2862,0.2171,0.499
4.956000,0.3576,0.3230,0.2012,0.522
4.961000,0.3821,0.3430,0.1926,0.548
4.967000,0.4343,0.3521,0.1756,0.586
4.978000,0.4378,0.3325,0.0940,0.558
4.979000,0.4653,0.2853,0.0421,0.547
4.983000,0.4883,0.2417,-0.0625,0.548
4.987000,0.5572,0.1920,-0.1052,0.599
4.992000,0.5581,0.1577,-0.1245,0.593
4.997000,0.5820,0.1138,-0.1566,0.613
5.002000,0.5847,0.0388,-0.1640,0.608
5.007000,0.5436,-0.0268,-0.1508,0.565
5.012000,0.5638,-0.0900,-0.0892,0.578
5.018000,0.5224,-0.1414,-0.0507,0.544
5.023000,0.4792,-0.1642,0.0196,0.507
5.028000,0.4391,-0.2087,0.0970,0.496
5.032000,0.3721,-0.2508,0.1050,0.461
5.038000,0.3415,-0.2691,0.0940,0.445
5.044000,0.3126,-0.2744,0.1383,0.438
5.048000,0.2890,-0.2415,0.1422,0.403
5.053000,0.2417,-0.2541,0.0795,0.360
5.067000,0.2018,-0.1830,0.0995,0.290
5.068000,0.1945,-0.1623,0.1076,0.275
5.069000,0.2293,-0.1321,0.0797,0.276
5.090000,0.2010,-0.1498,0.0934,0.268
5.092000,0.1477,-0.1880,0.1344,0.274
5.092000,0.1520,-0.2082,0.1103,0.280
5.093000,0.1411,-0.2368,0.1515,0.315
5.093000,0.1065,-0.2668,0.1478,0.323
5.097000,0.0876,-0.3290,0.2249,0.408
5.102000,0.0987,-0.3721,0.2489,0.458
5.108000,0.0813,-0.3997,0.3251,0.522
5.112000,0.0459,-0.4296,0.3233,0.540
5.117000,0.0514,-0.4093,0.3822,0.562
5.123000,0.0268,-0.3830,0.4003,0.555
5.129000,0.0440,-0.3771,0.3837,0.540
5.133000,0.0251,-0.3173,0.4558,0.556
5.138000,0.0586,-0.2610,0.4764,0.546
5.143000,0.0680,-0.2311,0.4347,0.497
5.149000,0.0616,-0.1642,0.4457,0.479
5.154000,0.0623,-0.0984,0.4114,0.428
5.170000,0.0700,-0.0531,0.3853,0.395
5.171000,0.0344,0.0090,0.3794,0.381
5.172000,0.0801,0.0914,0.3840,0.403
5.175000,0.0861,0.1055,0.3394,0.366
5.181000,0.0934,0.1698,0.2883,0.347
5.184000,0.1052,0.1396,0.2907,0.339
5.196000,0.1075,0.2110,0.2915,0.376
5.197000,0.1085,0.2572,0.2539,0.377
5.199000,0.0999,0.2328,0.2625,0.365
5.204000,0.0985,0.2671,0.2879,0.405
5.211000,0.1008,0.2511,0.2762,0.387
5.214000,0.0756,0.2231,0.2909,0.374
5.220000,0.0780,0.2215,0.2796,0.365
5.224000,0.0732,0.2008,0.3000,0.368
5.229000,0.0555,0.1144,0.2851,0.312
5.234000,0.0653,0.0783,0.2660,0.285
5.240000,0.0860,0.0949,0.2966,0.323
5.244000,0.0851,0.0541,0.2512,0.271
5.249000,0.0783,0.0098,0.2303,0.243
5.255000,0.0667,-0.0297,0.2147,0.227
5.268000,0.0935,-0.0320,0.1804,0.206
5.269000,0.1214,-0.0881,0.1811,0.235
5.270000,0.1087,-0.1190,0.1879,0.248
5.295000,0.0734,-0.1140,0.1769,0.223
5.296000,0.0965,-0.0899,0.1948,0.235
5.297000,0.1138,-0.0658,0.1842,0.226
5.297000,0.1106,-0.1062,0.1977,0.250
5.298000,0.1277,-0.1059,0.1839,0.248
5.300000,0.0981,-0.0698,0.1882,0.223
5.306000,0.0924,-0.0982,0.2011,0.242
5.311000,0.0986,-0.0608,0.1855,0.219
5.316000,0.1048,-0.0294,0.1892,0.218
5.321000,0.0859,-0.0244,0.1727,0.194
5.326000,0.0798,-0.0003,0.1397,0.161
5.331000,0.0580,0.0224,0.1045,0.122
5.336000,0.0412,0.0510,0.1051,0.124
5.341000,0.0315,0.0305,0.0843,0.095
5.346000,0.0491,0.0317,0.0660,0.088
5.351000,0.0618,0.0495,0.0870,0.118
5.358000,0.0564,0.0422,0.1123,0.133
5.361000,0.0904,0.0682,0.0971,0.149
5.366000,0.0720,0.0358,0.1045,0.132
5.371000,0.0573,0.0309,0.1120,0.130
5.387000,0.0890,0.0190,0.1469,0.173
5.389000,0.0934,0.0036,0.1328,0.162
5.390000,0.0755,0.0132,0.1343,0.155
5.391000,0.0684,-0.0118,0.1371,0.154
5.397000,0.0615,-0.0057,0.0783,0.100
5.401000,0.0486,0.0111,0.0534,0.073
5.413000,0.0215,-0.0007,0.0621,0.066
5.414000,-0.0006,-0.0017,0.0589,0.059
5.417000,-0.0178,-0.0027,0.0381,0.042
5.422000,-0.0207,0.0379,-0.0109,0.045
5.428000,-0.0164,0.0639,-0.0498,0.083
5.432000,-0.0266,0.0814,-0.0669,0.109
5.437000,-0.0344,0.0751,-0.0919,0.124
5.443000,-0.0410,0.0831,-0.0869,0.127
5.447000,-0.0179,0.0993,-0.1116,0.150
5.452000,0.0024,0.1155,-0.1301,0.174
5.458000,0.0379,0.0829,-0.1315,0.160
5.462000,0.0764,0.0494,-0.1211,0.151
5.467000,0.1133,0.0222,-0.1261,0.171
5.474000,0.1371,0.0498,-0.1642,0.220
5.477000,0.1665,0.0582,-0.1721,0.246
5.483000,0.1541,0.0392,-0.2154,0.268
5.488000,0.1394,0.0311,-0.2275,0.269
5.505000,0.1377,0.0825,-0.2430,0.291
5.506000,0.1559,0.0611,-0.2903,0.335
5.506000,0.1345,0.0791,-0.3040,0.342
5.509000,0.1178,0.0697,-0.3185,0.347
5.513000,0.1451,0.0521,-0.2879,0.327
5.518000,0.1010,0.0157,-0.3110,0.327
5.523000,0.0324,-0.0181,-0.2958,0.298
5.531000,0.0167,-0.0552,-0.3117,0.317
5.532000,-0.0307,-0.0541,-0.2990,0.305
5.538000,-0.1060,-0.0399,-0.3460,0.364
5.545000,-0.1721,-0.1043,-0.3536,0.407
5.549000,-0.2573,-0.1095,-0.3410,0.441
5.554000,-0.3506,-0.0873,-0.3130,0.478
5.561000,-0.4332,-0.0602,-0.3236,0.544
5.564000,-0.4940,-0.0249,-0.3474,0.604
5.568000,-0.5799,-0.0267,-0.3139,0.660
5.588000,-0.6644,0.0086,-0.3510,0.751
5.590000,-0.7227,0.0678,-0.3247,0.795
5.590000,-0.7738,0.0720,-0.2827,0.827
5.591000,-0.8164,0.1108,-0.2452,0.860
5.595000,-0.8746,0.1137,-0.2924,0.929
5.598000,-0.9135,0.1406,-0.2485,0.957
5.603000,-0.9344,0.1423,-0.2604,0.980
5.610000,-0.9838,0.1524,-0.2434,1.025
5.613000,-0.9672,0.1888,-0.2657,1.021
5.619000,-0.9805,0.2023,-0.2796,1.039
5.627000,-0.9459,0.1932,-0.3186,1.017
5.628000,-0.8851,0.2319,-0.3338,0.974
5.634000,-0.8090,0.2729,-0.3242,0.913
5.639000,-0.7869,0.2661,-0.3280,0.893
5.645000,-0.7435,0.2773,-0.2911,0.845
5.649000,-0.6610,0.2371,-0.2665,0.751
5.654000,-0.6029,0.2173,-0.1797,0.666
5.660000,-0.5249,0.1929,-0.1550,0.580
5.664000,-0.4712,0.1555,-0.1325,0.514
5.669000,-0.4049,0.1230,-0.1252,0.441
5.675000,-0.3821,0.1098,-0.1807,0.437
5.679000,-0.3084,0.1112,-0.2466,0.410
5.685000,-0.2675,0.0911,-0.2462,0.375
5.691000,-0.2247,0.0962,-0.2444,0.346
5.695000,-0.2470,0.0908,-0.2889,0.391
5.700000,-0.2325,0.1057,-0.2901,0.387
5.705000,-0.2041,0.1160,-0.2804,0.366
5.721000,-0.1880,0.1000,-0.3267,0.390
5.722000,-0.1723,0.0603,-0.3024,0.353
5.723000,-0.1197,0.0601,-0.2709,0.302
5.725000,-0.1033,0.0384,-0.3113,0.330
5.730000,-0.1287,0.0203,-0.2800,0.309
5.736000,-0.0681,-0.0325,-0.3434,0.352
5.742000,-0.0832,-0.0552,-0.3233,0.338
5.745000,-0.0600,-0.1233,-0.3116,0.340
5.751000,-0.0191,-0.1805,-0.2784,0.332
5.756000,-0.0346,-0.2353,-0.2525,0.347
5.762000,-0.0225,-0.2947,-0.2253,0.372
5.766000,0.0015,-0.3325,-0.2229,0.400
5.771000,0.0110,-0.3762,-0.2049,0.429
5.776000,0.0407,-0.3756,-0.2068,0.431
5.781000,0.0390,-0.4071,-0.2051,0.458
5.786000,0.0420,-0.4051,-0.2572,0.482
5.792000,0.0460,-0.3792,-0.2915,0.481
5.796000,0.0500,-0.3784,-0.3454,0.515
5.801000,-0.0415,-0.3766,-0.4417,0.582
5.806000,-0.1027,-0.3785,-0.4334,0.584
5.811000,-0.1696,-0.3446,-0.3997,0.554
5.816000,-0.2526,-0.3444,-0.3824,0.573
5.821000,-0.3338,-0.3121,-0.3705,0.588
5.838000,-0.4034,-0.3232,-0.3283,0.612
5.839000,-0.4473,-0.3057,-0.3129,0.626
5.840000,-0.5302,-0.2405,-0.2536,0.635
5.842000,-0.5826,-0.2305,-0.2315,0.668
5.846000,-0.5940,-0.2314,-0.1736,0.661
5.851000,-0.6112,-0.1832,-0.1600,0.658
5.864000,-0.6245,-0.1603,-0.1725,0.667
5.865000,-0.6114,-0.1064,-0.1359,0.635
5.866000,-0.5682,-0.0848,-0.1387,0.591
5.873000,-0.5654,-0.0215,-0.1079,0.576
5.878000,-0.5552,-0.0014,-0.0725,0.560
5.883000,-0.5223,0.0319,-0.0959,0.532
5.888000,-0.5095,0.0746,-0.0872,0.522
5.893000,-0.4728,0.0730,-0.1146,0.492
5.897000,-0.4816,0.0857,-0.1282,0.506
5.903000,-0.4304,0.0863,-0.1050,0.451
5.919000,-0.4570,0.0929,-0.1204,0.482
5.920000,-0.4931,0.1150,-0.1110,0.518
5.921000,-0.4562,0.1334,-0.0816,0.482
5.925000,-0.4636,0.1303,-0.0799,0.488
5.943000,-0.4934,0.1259,-0.0530,0.512
5.945000,-0.5005,0.1443,-0.0343,0.522
5.946000,-0.5039,0.1423,-0.0430,0.525
5.946000,-0.5214,0.1487,-0.0333,0.543
5.948000,-0.5245,0.1839,-0.0397,0.557
5.953000,-0.5277,0.1891,-0.0694,0.565
5.959000,-0.5155,0.1861,-0.0915,0.556
5.963000,-0.5307,0.1986,-0.0975,0.575
5.968000,-0.5376,0.1801,-0.0730,0.572
5.973000,-0.5089,0.2048,-0.1055,0.559
5.979000,-0.5089,0.1721,-0.1317,0.553
5.983000,-0.5092,0.1754,-0.0881,0.546
5.989000,-0.4726,0.1524,-0.0718,0.502
5.994000,-0.4816,0.1296,-0.0766,0.505
5.999000,-0.4406,0.1211,-0.0656,0.462
6.004000,-0.4250,0.0794,-0.0471,0.435
6.009000,-0.3953,0.0485,-0.0273,0.399
6.013000,-0.3837,0.0643,-0.0189,0.390
6.019000,-0.3626,0.0527,0.0053,0.366
6.026000,-0.3287,0.0136,-0.0290,0.330
6.029000,-0.3225,0.0142,-0.0188,0.323
6.034000,-0.2591,0.0255,-0.0348,0.263
6.039000,-0.2139,0.0405,-0.0318,0.220
6.055000,-0.2251,0.0256,-0.0669,0.236
6.056000,-0.1660,0.0155,-0.0590,0.177
6.057000,-0.1406,0.0291,-0.0879,0.168
6.058000,-0.0967,0.0426,-0.0716,0.128
6.065000,-0.0877,0.0809,-0.0674,0.137
6.070000,-0.0955,0.0548,-0.0778,0.135
6.081000,-0.0631,0.0623,-0.0276,0.093
6.083000,-0.0478,0.0483,0.0079,0.068
6.085000,0.0575,0.0677,0.0358,0.096
6.090000,0.0907,0.0501,0.0786,0.130
6.096000,0.0878,0.0766,0.1352,0.178
6.101000,0.1513,0.0851,0.1830,0.252
6.106000,0.1240,0.1398,0.1957,0.271
6.113000,0.1701,0.1229,0.2355,0.315
6.114000,0.2647,-0.0507,0.2328,0.356
6.120000,0.2675,-0.0879,0.2300,0.364
6.138000,0.2035,-0.0737,0.2662,0.343
6.139000,0.1899,-0.0752,0.2876,0.353
6.140000,0.1704,-0.0551,0.3350,0.380
6.142000,0.1271,-0.0543,0.3806,0.405
6.145000,0.1041,-0.0500,0.3839,0.401
6.151000,0.1015,-0.0600,0.3629,0.382
6.155000,0.0785,-0.0677,0.3642,0.379
6.166000,0.0545,-0.0443,0.3626,0.369
6.166000,-0.0148,0.0052,0.3331,0.333
6.171000,-0.0789,-0.0434,0.3594,0.371
6.177000,-0.1311,-0.0131,0.3126,0.339
6.180000,-0.1641,-0.0068,0.2919,0.335
6.186000,-0.2149,-0.0017,0.2772,0.351
6.191000,-0.2274,0.0082,0.2779,0.359
6.197000,-0.2208,-0.0513,0.2320,0.324
6.201000,-0.2345,-0.0544,0.2353,0.337
6.206000,-0.2065,-0.0552,0.2650,0.340
6.211000,-0.2026,-0.0439,0.2540,0.328
6.216000,-0.1390,-0.0494,0.2336,0.276
6.221000,-0.0541,-0.0369,0.1775,0.189
6.227000,0.0030,-0.0746,0.1395,0.158
6.231000,0.0371,-0.0619,0.1422,0.159
6.236000,0.0808,-0.0768,0.1569,0.192
6.241000,0.1113,-0.0869,0.1010,0.174
6.246000,0.1753,-0.0886,0.1013,0.221
6.251000,0.2058,-0.0341,0.1135,0.238
6.257000,0.2126,-0.0372,0.1221,0.248
6.272000,0.2481,-0.0474,0.1222,0.281
6.273000,0.2838,-0.0039,0.1056,0.303
6.273000,0.2831,0.0154,0.1025,0.301
6.278000,0.3145,0.0310,0.0861,0.328
6.281000,0.3174,0.0226,0.1067,0.336
6.287000,0.2731,0.0272,0.0834,0.287
6.296000,0.2791,0.0105,0.0435,0.283
6.297000,0.2804,0.0081,0.0561,0.286
6.302000,0.2748,0.0258,0.0413,0.279
6.307000,0.2504,0.0007,0.0209,0.251
6.311000,0.2572,0.0184,0.0242,0.259
6.317000,0.2390,-0.0304,0.0169,0.242
6.322000,0.2341,-0.0267,0.0120,0.236
6.327000,0.2269,-0.0265,0.0654,0.238
6.332000,0.2376,-0.0465,0.0780,0.254
6.337000,0.2199,-0.0985,0.0929,0.258
6.353000,0.2274,-0.1026,0.1732,0.304
6.353000,0.2051,-0.1588,0.1306,0.290
6.354000,0.2092,-0.1551,0.1361,0.294
6.357000,0.2121,-0.1540,0.1486,0.301
6.374000,0.1868,-0.1719,0.1528,0.296
6.375000,0.1629,-0.2418,0.1202,0.315
6.375000,0.1465,-0.2353,0.1045,0.296
6.377000,0.1146,-0.2014,0.0558,0.238
6.384000,0.1257,-0.1678,0.0489,0.215
6.387000,0.1045,-0.1143,0.0423,0.161
6.395000,0.1024,-0.0802,0.0467,0.138
6.397000,0.1274,-0.0356,0.0534,0.143
6.403000,0.0702,-0.0258,0.0590,0.095
6.410000,0.0752,-0.0196,0.0537,0.094
6.413000,0.0780,0.0126,0.0508,0.094
6.418000,0.0524,0.0147,0.0714,0.090
6.423000,0.0358,-0.0046,0.1010,0.107
6.429000,0.0159,-0.0073,0.1060,0.107
6.433000,-0.0049,-0.0172,0.0809,0.083
6.438000,-0.0324,-0.0258,0.0710,0.082
6.443000,-0.0285,-0.0393,0.1261,0.135
6.449000,-0.0628,-0.0502,0.1414,0.163
6.454000,-0.0491,-0.0576,0.1638,0.180
6.473000,-0.0274,-0.0446,0.1670,0.175
6.474000,-0.0463,-0.0128,0.1787,0.185
6.475000,-0.0094,-0.0286,0.1441,0.147
6.477000,0.0473,-0.0157,0.1149,0.125
6.478000,0.0879,-0.0100,0.1085,0.140
6.484000,0.0733,-0.0222,0.0619,0.098
6.490000,0.0802,-0.0390,0.0463,0.100
6.498000,0.1071,-0.0770,0.0296,0.135
6.499000,0.1111,-0.0814,0.0720,0.155
6.505000,0.1211,-0.1226,0.0582,0.182
6.514000,0.1084,-0.0852,0.0361,0.143
6.515000,0.1078,-0.1229,0.0700,0.178
6.520000,0.0941,-0.1661,0.0573,0.199
6.525000,0.0842,-0.1592,0.1008,0.206
6.530000,0.0506,-0.1819,0.0777,0.204
6.534000,0.0588,-0.2128,0.1228,0.253
6.540000,0.0349,-0.2362,0.1144,0.265
6.544000,0.0231,-0.2143,0.1064,0.240
6.550000,0.0126,-0.1808,0.1154,0.215
6.555000,0.0093,-0.1652,0.1339,0.213
6.560000,-0.0094,-0.1735,0.1358,0.221
6.565000,-0.0175,-0.1532,0.1355,0.205
6.570000,0.0110,-0.1271,0.0948,0.159
6.576000,0.0058,-0.0643,0.1292,0.144
6.591000,-0.0082,0.0158,0.0896,0.091
6.592000,0.0311,0.0681,0.0895,0.117
6.593000,0.0364,0.1200,0.0799,0.149
6.595000,0.0664,0.1774,0.0915,0.210
6.600000,0.1040,0.2227,0.0628,0.254
6.606000,0.1161,0.1916,0.0603,0.232
6.621000,0.1623,0.2166,0.0362,0.273
6.623000,0.2081,0.1820,0.0335,0.278
6.623000,0.2072,0.1810,0.0034,0.275
6.624000,0.2147,0.1514,0.0411,0.266
6.636000,0.1807,0.1363,-0.0188,0.227
6.638000,0.2088,0.1498,-0.0200,0.258
6.643000,0.2179,0.1264,-0.0509,0.257
6.652000,0.1997,0.0640,-0.0043,0.210
6.653000,0.1795,0.0257,-0.0208,0.183
6.656000,0.1727,0.0235,-0.0237,0.176
6.662000,0.1850,-0.0132,-0.0417,0.190
6.666000,0.1817,-0.0496,-0.0807,0.205
6.671000,0.1784,-0.0595,-0.0761,0.203
6.690000,0.1538,-0.0763,-0.0913,0.194
6.691000,0.1423,-0.0965,-0.0797,0.190
6.692000,0.1510,-0.1130,-0.0584,0.197
6.719000,0.1453,-0.1102,-0.0772,0.198
6.720000,0.1479,-0.1454,-0.0659,0.218
6.721000,0.1612,-0.1530,-0.0496,0.228
6.721000,0.1802,-0.1736,0.0188,0.251
6.722000,0.1480,-0.2141,-0.0369,0.263
6.723000,0.1553,-0.1950,-0.0564,0.256
6.723000,0.1400,-0.1856,-0.0357,0.235
6.732000,0.1165,-0.1763,0.0010,0.211
6.733000,0.0885,-0.1350,-0.0127,0.162
6.737000,0.1010,-0.1582,0.0019,0.188
6.743000,0.0552,-0.1230,0.0375,0.140
6.746000,0.0608,-0.1155,0.0619,0.144
6.752000,0.0307,-0.1021,0.0608,0.123
6.757000,0.0200,-0.0164,0.0704,0.075
6.762000,0.0175,-0.0193,0.0749,0.079
6.767000,0.0210,-0.0043,0.0450,0.050
6.773000,0.0126,0.0437,0.0317,0.055
6.778000,0.0114,0.0557,0.0243,0.062
6.783000,0.0173,0.0546,0.0085,0.058
6.788000,0.0006,0.0546,-0.0121,0.056
6.794000,0.0031,0.0582,0.0374,0.069
6.797000,0.0067,0.0831,0.0222,0.086
6.803000,0.0199,0.0425,0.0023,0.047
6.808000,0.0141,0.0603,-0.0281,0.068
6.826000,0.0319,0.0555,-0.0394,0.075
6.828000,0.0307,0.0056,-0.0255,0.040
6.830000,0.0224,0.0214,0.0228,0.039
6.835000,0.0238,0.0240,0.0447,0.056
6.836000,0.0407,-0.0162,0.0462,0.064
6.838000,0.0277,-0.0026,0.0335,0.044
6.861000,0.0221,-0.0271,0.0343,0.049
6.863000,0.0450,-0.0289,0.0494,0.073
6.863000,0.0143,-0.0460,0.0038,0.048
6.864000,-0.0077,-0.0370,0.0465,0.060
6.865000,0.0204,-0.0327,0.0401,0.056
6.869000,-0.0040,-0.0274,0.0244,0.037
6.875000,-0.0329,-0.0268,0.0195,0.047
6.881000,-0.0261,-0.0451,0.0111,0.053
6.883000,-0.0241,-0.0527,0.0361,0.068
6.889000,0.0170,-0.0411,0.0715,0.084
6.905000,0.0009,-0.0285,0.0318,0.043
6.906000,0.0158,-0.0671,0.0850,0.109
6.907000,0.0187,-0.0614,0.0688,0.094
6.909000,0.0371,-0.0582,0.0908,0.114
6.927000,0.0186,-0.0775,0.0483,0.093
6.929000,0.0169,-0.0801,0.0358,0.089
6.930000,0.0259,-0.0459,0.0471,0.071
6.931000,0.0278,-0.0500,0.0700,0.090
6.934000,0.0332,-0.0422,0.0248,0.059
6.939000,0.0516,-0.0226,0.0499,0.075
6.945000,0.0117,-0.0020,0.0652,0.066
6.949000,0.0339,-0.0291,0.0899,0.100
6.955000,0.0441,-0.0049,0.0632,0.077
6.961000,0.0127,0.0167,0.0630,0.066
6.965000,0.0171,-0.0057,0.0820,0.084
6.970000,0.0098,0.0242,0.0722,0.077
6.975000,-0.0046,0.0242,0.0758,0.080
6.980000,-0.0165,0.0539,0.0282,0.063
6.984000,-0.0083,0.0561,0.0607,0.083
6.990000,0.0095,0.0522,0.0358,0.064
6.996000,0.0081,0.1019,-0.0197,0.104
7.000000,-0.0014,0.0929,-0.0178,0.095
7.005000,0.0082,0.0365,-0.0291,0.047
7.023000,0.0118,0.0767,-0.0120,0.078
7.024000,-0.0143,0.0334,-0.0045,0.037
7.024000,-0.0128,0.0428,-0.0290,0.053
7.026000,0.0090,0.0176,-0.0057,0.021
7.042000,-0.0145,-0.0406,0.0366,0.057
7.043000,-0.0210,-0.0212,0.0754,0.081
7.044000,-0.0275,-0.0351,0.0415,0.061
7.047000,-0.0257,-0.0750,0.0426,0.090
7.050000,0.0248,-0.0481,0.1057,0.119
7.056000,0.0132,-0.0689,0.1104,0.131
7.064000,-0.0313,-0.0598,0.0821,0.106
7.065000,-0.0921,-0.0568,0.0790,0.134
7.071000,-0.0586,-0.0502,0.0273,0.082
7.077000,-0.0696,-0.0223,0.0081,0.073
7.080000,-0.0603,-0.0171,-0.0253,0.068
7.086000,-0.0536,-0.0012,-0.0406,0.067
7.091000,-0.0554,0.0371,-0.0131,0.068
7.098000,-0.0265,0.0324,0.0189,0.046
7.101000,-0.0192,0.0063,0.0304,0.037
7.106000,-0.0047,-0.0540,0.0534,0.076
7.123000,-0.0054,-0.0415,0.0630,0.076
7.123000,-0.0321,-0.0576,0.0580,0.088
7.124000,-0.0643,-0.0429,0.0454,0.090
7.126000,-0.0545,-0.0260,0.0160,0.062
7.142000,-0.0436,0.0074,0.0292,0.053
7.143000,-0.0458,-0.0332,0.0835,0.101
7.144000,-0.0646,-0.0437,0.0694,0.104
7.148000,-0.0881,-0.0280,0.0888,0.128
7.151000,-0.0558,0.0173,0.0974,0.114
7.157000,-0.0251,0.0195,0.0906,0.096
7.162000,-0.0128,0.0194,0.0877,0.091
7.167000,0.0031,0.0478,0.0160,0.051
7.172000,0.0281,0.0547,0.0080,0.062
7.179000,0.0278,0.0318,0.0296,0.052
7.182000,-0.0007,0.0246,-0.0013,0.025
7.187000,-0.0432,0.0470,-0.0344,0.073
7.192000,0.0001,0.0348,-0.0651,0.074
7.198000,-0.0388,0.0097,-0.0649,0.076
7.203000,-0.0594,0.0226,-0.0895,0.110
7.207000,-0.0845,-0.0025,-0.0356,0.092
7.213000,-0.1176,0.0177,-0.0484,0.128
7.217000,-0.1277,0.0329,-0.0062,0.132
7.223000,-0.1209,0.0266,0.0194,0.125
7.229000,-0.1214,-0.0092,0.0072,0.122
7.232000,-0.1074,0.0110,-0.0140,0.109
7.238000,-0.0970,0.0430,-0.0096,0.107
7.243000,-0.1081,-0.0143,-0.0110,0.110
7.259000,-0.0967,0.0060,-0.0157,0.098
7.260000,-0.0604,0.0084,-0.0262,0.066
7.260000,-0.0590,-0.0081,-0.0485,0.077
7.263000,-0.0399,-0.0139,-0.0220,0.048
7.268000,-0.0483,-0.0136,0.0134,0.052
7.273000,-0.0508,-0.0276,0.0010,0.058
7.285000,-0.0164,-0.0344,-0.0305,0.049
7.286000,-0.0262,-0.0020,-0.0052,0.027
7.288000,-0.0194,-0.0162,0.0029,0.025
7.299000,0.0004,-0.0231,0.0144,0.027
7.300000,-0.0192,0.0186,-0.0206,0.034
7.304000,-0.0244,-0.0159,-0.0176,0.034
7.309000,-0.0236,0.0151,0.0482,0.056
7.315000,-0.0430,0.0043,0.0174,0.047
7.319000,-0.0586,0.0126,0.0331,0.069
7.323000,-0.0444,-0.0136,0.0085,0.047
7.329000,-0.0623,0.0209,0.0021,0.066
7.334000,-0.0906,0.0267,-0.0172,0.096
7.339000,-0.0997,0.0348,-0.0136,0.106
7.359000,-0.0861,-0.0153,0.0139,0.089
7.361000,-0.0856,-0.0401,-0.0312,0.100
7.361000,-0.1231,-0.0244,-0.0177,0.127
7.362000,-0.1114,0.0114,-0.0136,0.113
7.365000,-0.0702,0.0161,-0.0037,0.072
7.369000,-0.0828,0.0124,-0.0163,0.085
7.374000,-0.0811,-0.0150,-0.0585,0.101
7.382000,-0.0733,-0.0137,-0.0099,0.075
7.383000,-0.0811,-0.0077,0.0013,0.081
7.390000,-0.0652,-0.0159,-0.0338,0.075
7.395000,-0.0269,-0.0181,-0.0319,0.045
7.399000,0.0110,0.0165,0.0164,0.026
7.405000,-0.0120,0.0521,-0.0105,0.054
7.410000,0.0221,0.0055,-0.0299,0.038
7.415000,0.0250,0.0032,-0.0479,0.054
7.420000,0.0349,0.0258,-0.0505,0.067
7.425000,0.0599,0.0199,-0.0590,0.086
7.430000,0.0468,0.0151,-0.0281,0.057
7.435000,0.0386,-0.0097,-0.0189,0.044
7.440000,0.0377,-0.0036,-0.0810,0.089
7.461000,0.0414,0.0358,-0.0843,0.101
7.463000,0.0226,-0.0272,-0.0567,0.067
7.463000,0.0052,-0.0256,-0.0803,0.084
7.464000,-0.0049,-0.0158,-0.0490,0.052
7.464000,-0.0043,-0.0202,-0.0593,0.063
7.470000,-0.0393,-0.0127,-0.0658,0.078
7.476000,-0.0181,-0.0076,-0.0554,0.059
7.488000,-0.0008,-0.0144,-0.0484,0.051
7.489000,-0.0074,0.0073,-0.0416,0.043
7.492000,-0.0079,0.0016,-0.0027,0.008
7.504000,0.0082,0.0054,-0.0340,0.035
7.505000,-0.0185,-0.0063,-0.0593,0.062
7.506000,-0.0117,-0.0369,-0.0345,0.052
7.519000,0.0272,-0.0317,-0.0362,0.055
7.520000,0.0112,-0.0479,-0.0286,0.057
7.521000,-0.0094,-0.0082,-0.0425,0.044
7.526000,-0.0025,-0.0080,-0.0459,0.047
7.531000,-0.0100,-0.0256,-0.0411,0.049
7.536000,-0.0137,-0.0360,-0.0602,0.071
7.541000,0.0099,-0.0404,-0.0436,0.060
7.546000,0.0202,-0.0543,-0.0464,0.074
7.552000,0.0494,-0.0395,-0.0990,0.117
7.556000,0.0416,-0.0237,-0.0680,0.083
7.561000,0.0326,0.0252,-0.0813,0.091
7.566000,0.0487,0.0310,-0.1015,0.117
7.571000,0.0727,0.0154,-0.1014,0.126
7.577000,0.0360,0.0273,-0.0953,0.105
7.594000,0.0734,0.0319,-0.1069,0.134
7.595000,0.0996,0.0234,-0.1172,0.156
7.596000,0.0638,0.0269,-0.0869,0.111
7.598000,0.1210,0.0090,-0.1257,0.175
7.602000,0.1362,0.0127,-0.1047,0.172
7.608000,0.1347,0.0329,-0.1158,0.181
7.623000,0.1320,0.0149,-0.1471,0.198
7.624000,0.1173,-0.0159,-0.1545,0.195
7.625000,0.1361,-0.0038,-0.1511,0.203
7.627000,0.1347,-0.0322,-0.1385,0.196
7.638000,0.1286,-0.0698,-0.1531,0.212
7.640000,0.0634,-0.0503,-0.1252,0.149
7.643000,0.0453,-0.0808,-0.1058,0.141
7.653000,0.0381,-0.0861,-0.0985,0.136
7.654000,0.0336,-0.0963,-0.0591,0.118
7.657000,-0.0025,-0.1409,-0.0557,0.151
7.664000,-0.0190,-0.1460,-0.0759,0.166
7.667000,-0.0413,-0.1273,-0.0483,0.142
7.673000,-0.0419,-0.1112,-0.0697,0.138
7.678000,-0.0258,-0.1011,-0.0611,0.121
7.693000,-0.0382,-0.1244,-0.0349,0.135
7.694000,-0.0268,-0.1274,-0.0827,0.154
7.694000,-0.0249,-0.1197,-0.0648,0.138
7.697000,-0.0184,-0.0942,-0.0509,0.109
7.702000,-0.0263,-0.1010,-0.0729,0.127
7.708000,-0.0175,-0.0686,-0.0557,0.090
7.719000,-0.0183,-0.0768,-0.0700,0.106
7.720000,-0.0441,-0.0695,-0.0795,0.114
7.723000,-0.0166,-0.0290,-0.0618,0.070
7.728000,-0.0001,-0.0398,-0.0254,0.047
7.733000,-0.0065,0.0041,-0.0259,0.027
7.738000,-0.0212,-0.0236,0.0284,0.043
7.744000,-0.0049,-0.0308,0.0489,0.058
7.748000,0.0505,-0.0344,0.0563,0.083
7.753000,0.0627,-0.0202,0.1054,0.124
7.758000,0.0477,-0.0453,0.0522,0.084
7.763000,0.0543,-0.0690,0.0505,0.101
7.769000,0.0180,-0.0664,0.0465,0.083
7.773000,-0.0226,-0.0508,0.0177,0.058
7.780000,0.0036,-0.0519,-0.0180,0.055
7.785000,-0.0251,-0.0114,-0.0698,0.075
7.789000,-0.0170,0.0015,-0.0786,0.080
7.794000,-0.0174,0.0476,-0.0327,0.060
7.809000,-0.0048,-0.0160,-0.0715,0.073
7.810000,-0.0399,-0.0291,-0.0590,0.077
7.810000,0.0070,-0.0409,-0.0064,0.042
7.834000,-0.0152,-0.0289,0.0074,0.033
7.835000,-0.0110,-0.0004,0.0032,0.011
7.836000,-0.0376,-0.0375,0.0475,0.071
7.837000,-0.0557,-0.0553,0.0508,0.093
7.837000,-0.0272,-0.0410,0.0241,0.055
7.840000,0.0118,-0.0494,0.0331,0.061
7.845000,0.0135,-0.0541,0.0442,0.071
7.850000,0.0483,-0.0683,-0.0055,0.084
7.855000,0.0566,-0.0360,0.0283,0.073
7.860000,0.0730,-0.0455,0.0430,0.096
7.866000,0.0950,-0.0347,0.0150,0.102
7.870000,0.0871,-0.0156,-0.0234,0.091
7.876000,0.0789,0.0117,-0.0409,0.090
7.882000,0.0967,-0.0038,-0.0426,0.106
7.886000,0.0999,0.0248,-0.0715,0.125
7.890000,0.0687,0.0175,-0.0832,0.109
7.895000,0.0518,0.0258,-0.0851,0.103
7.911000,0.0090,0.0270,-0.0914,0.096
7.912000,0.0128,0.0174,-0.0726,0.076
7.912000,0.0143,0.0009,-0.0798,0.081
7.915000,0.0169,-0.0333,-0.0902,0.098
7.924000,-0.0078,-0.0126,-0.0610,0.063
7.924000,0.0032,-0.0442,-0.0271,0.052
7.932000,0.0141,-0.0388,-0.0621,0.075
7.935000,-0.0001,-0.0512,-0.0435,0.067
7.941000,-0.0118,-0.0718,0.0023,0.073
7.947000,0.0264,-0.0803,-0.0176,0.086
7.951000,0.0228,-0.1173,-0.0328,0.124
7.956000,0.0169,-0.0959,-0.0041,0.097
7.961000,-0.0256,-0.0497,0.0347,0.066
7.967000,0.0223,-0.0621,-0.0102,0.067
7.971000,0.0307,-0.0887,-0.0102,0.094
7.976000,0.0273,-0.0416,-0.0234,0.055
7.981000,0.0309,-0.0126,-0.0062,0.034
7.987000,0.0345,0.0006,-0.0356,0.050
7.992000,0.0296,-0.0053,-0.0366,0.047
8.012000,0.0486,0.0091,-0.0214,0.054
8.014000,0.0366,0.0078,0.0087,0.038
8.015000,0.0364,0.0493,0.0266,0.067
8.024000,-0.0075,0.0595,-0.0461,0.076
8.029000,0.0048,0.0684,-0.0090,0.069
8.029000,-0.0031,0.0582,-0.0184,0.061
8.030000,0.0071,0.0434,0.0033,0.044
8.031000,-0.0135,0.0381,0.0119,0.042
8.038000,-0.0102,0.0103,0.0112,0.018
8.042000,-0.0258,0.0208,-0.0153,0.036
8.055000,-0.0352,-0.0068,-0.0020,0.036
8.056000,-0.0492,0.0026,-0.0229,0.054
8.057000,-0.0512,-0.0236,-0.0186,0.059
8.064000,-0.0307,-0.0307,-0.0033,0.043
8.069000,-0.0281,-0.0329,0.0130,0.045
8.073000,-0.0504,-0.0564,0.0246,0.080
8.078000,-0.0298,-0.0394,0.0205,0.053
8.084000,-0.0034,-0.0143,-0.0048,0.015
8.088000,0.0133,-0.0439,0.0139,0.048
8.093000,0.0239,-0.0140,0.0334,0.043
8.109000,0.0236,-0.0734,0.0169,0.079
8.110000,0.0422,-0.0657,0.0077,0.078
8.110000,0.0333,-0.0320,0.0045,0.046
8.133000,0.0505,-0.0069,-0.0179,0.054
8.134000,0.0390,0.0002,-0.0188,0.043
8.135000,0.0452,-0.0413,-0.0246,0.066
8.135000,0.0560,-0.0374,0.0075,0.068
8.136000,0.0333,-0.0027,-0.0011,0.033
8.138000,0.0228,0.0104,-0.0440,0.051
8.144000,-0.0091,0.0305,-0.0192,0.037
8.148000,0.0232,0.0267,-0.0776,0.085
8.153000,0.0126,0.0634,-0.0952,0.115
8.158000,0.0127,0.0795,-0.0557,0.098
8.164000,-0.0110,0.0350,-0.0733,0.082
8.168000,-0.0129,0.0549,-0.0586,0.081
8.173000,-0.0029,0.0391,-0.0593,0.071
8.179000,0.0155,0.0672,-0.0397,0.080
8.183000,0.0077,0.0667,-0.0176,0.069
8.188000,0.0509,0.0293,-0.0124,0.060
8.194000,0.0690,0.0018,-0.0155,0.071
8.199000,0.0313,0.0255,-0.0161,0.043
8.204000,0.0391,-0.0140,-0.0022,0.042
8.209000,0.0540,-0.0400,0.0045,0.067
8.229000,0.0484,-0.0231,0.0077,0.054
8.230000,0.0310,-0.0324,-0.0162,0.048
8.231000,0.0282,-0.0357,0.0016,0.045
8.232000,0.0324,0.0003,0.0133,0.035
8.234000,0.0365,-0.0437,0.0072,0.057
8.239000,0.0227,-0.0433,-0.0144,0.051
8.244000,0.0067,-0.0464,0.0244,0.053
8.257000,0.0086,-0.0342,-0.0298,0.046
8.258000,-0.0181,0.0076,0.0043,0.020
8.260000,-0.0006,0.0016,-0.0024,0.003
8.272000,0.0132,-0.0067,-0.0211,0.026
8.273000,-0.0135,-0.0506,0.0053,0.053
8.273000,-0.0329,-0.0312,-0.0315,0.055
8.280000,0.0048,-0.0084,-0.0289,0.030
8.286000,-0.0077,0.0082,-0.0286,0.031
8.290000,-0.0047,-0.0049,-0.0545,0.055
8.296000,-0.0207,0.0010,-0.0470,0.051
8.300000,0.0002,-0.0168,-0.0456,0.049
8.305000,0.0091,-0.0273,-0.0441,0.053
8.310000,-0.0200,0.0013,-0.0642,0.067
8.326000,-0.0155,0.0000,-0.0604,0.062
8.327000,-0.0052,-0.0060,-0.0031,0.008
8.328000,-0.0044,-0.0214,0.0704,0.074
8.354000,-0.0224,-0.0403,0.0199,0.050
8.355000,0.0107,-0.0223,0.0331,0.041
8.355000,-0.0205,0.0052,0.0106,0.024
8.356000,-0.0242,0.0193,0.0361,0.048
8.356000,-0.0326,0.0014,0.0153,0.036
8.357000,-0.0255,0.0013,-0.0112,0.028
8.360000,-0.0528,0.0167,-0.0147,0.057
8.366000,-0.0241,0.0118,-0.0124,0.030
8.371000,-0.0228,0.0188,0.0088,0.031
8.376000,-0.0166,0.0197,-0.0226,0.034
8.382000,-0.0093,0.0502,-0.0338,0.061
8.386000,-0.0116,0.0330,-0.0536,0.064
8.391000,-0.0115,0.0029,-0.0414,0.043
8.396000,-0.0361,0.0240,-0.0650,0.078
8.401000,-0.0011,0.0543,-0.0745,0.092
8.406000,0.0026,0.0417,-0.0994,0.108
8.411000,0.0039,0.0720,-0.0862,0.112
8.416000,-0.0319,0.0629,-0.0611,0.093
8.422000,0.0133,0.0539,-0.0326,0.064
8.427000,0.0011,0.0307,-0.0302,0.043
8.444000,0.0057,0.0138,-0.0132,0.020
8.445000,0.0198,-0.0173,0.0729,0.077
8.446000,0.0515,-0.0433,0.0826,0.107
8.474000,0.0426,-0.0905,0.1165,0.154
8.475000,0.0566,-0.1147,0.0758,0.149
8.476000,0.0375,-0.0948,-0.0155,0.103
8.476000,0.0232,-0.1048,-0.0940,0.143
8.477000,0.0043,-0.0743,-0.1269,0.147
8.477000,-0.0049,-0.0216,-0.0816,0.085
8.478000,-0.0249,-0.0168,-0.0856,0.091
8.487000,0.0099,0.0093,-0.0981,0.099
8.488000,0.0311,0.0246,-0.0646,0.076
8.492000,0.0296,0.0385,-0.0544,0.073
8.500000,0.0116,0.0522,-0.0188,0.057
8.503000,0.0259,0.0028,-0.0350,0.044
8.508000,0.0357,-0.0546,-0.0039,0.065
8.513000,-0.0043,-0.0725,0.0717,0.102
8.518000,-0.0094,-0.0831,0.1027,0.132
8.523000,-0.0262,-0.0948,0.0718,0.122
8.528000,0.0082,-0.1148,0.1089,0.158
8.533000,0.0209,-0.1061,0.0865,0.138
8.538000,0.0049,-0.0653,0.0658,0.093
8.543000,0.0221,-0.0747,0.0325,0.084
8.565000,0.0261,-0.0981,-0.0074,0.102
8.566000,0.0417,-0.0466,-0.0241,0.067
8.567000,-0.0047,0.0295,-0.0479,0.056
8.567000,0.0226,0.0517,-0.0570,0.080
8.568000,0.0116,0.0321,-0.1051,0.111
8.573000,-0.0159,0.0092,-0.0721,0.074
8.579000,-0.0456,0.0434,-0.0511,0.081
8.594000,-0.0618,0.0429,-0.0422,0.086
8.596000,-0.0791,0.0044,-0.0296,0.085
8.597000,-0.0510,-0.0124,-0.0266,0.059
8.610000,-0.0800,-0.0220,-0.0649,0.105
8.611000,-0.0791,-0.0458,-0.0614,0.110
8.612000,-0.0804,-0.0207,-0.0091,0.084
8.613000,-0.0712,-0.0361,-0.0200,0.082
8.625000,-0.0595,-0.0633,-0.0140,0.088
8.626000,-0.0599,-0.0570,-0.0092,0.083
8.630000,-0.0662,-0.0567,-0.0175,0.089
8.634000,-0.0427,-0.0481,-0.0580,0.087
8.639000,-0.0065,-0.0146,-0.0567,0.059
8.644000,-0.0026,-0.0052,-0.0282,0.029
8.649000,0.0297,0.0125,0.0020,0.032
8.655000,0.0107,0.0371,-0.0430,0.058
8.660000,0.0263,0.0306,-0.0499,0.064
8.680000,0.0215,0.0158,-0.0652,0.070
8.682000,0.0216,0.0261,-0.0568,0.066
8.683000,0.0158,0.0232,-0.0605,0.067
8.684000,0.0253,0.0097,-0.0581,0.064
8.684000,0.0229,0.0260,-0.0261,0.043
8.689000,0.0479,-0.0256,-0.0383,0.066
8.695000,0.0383,-0.0030,-0.0607,0.072
8.707000,0.0287,-0.0080,-0.0686,0.075
8.709000,-0.0045,-0.0165,-0.0906,0.092
8.709000,0.0077,-0.0237,-0.0708,0.075
8.723000,-0.0110,-0.0250,-0.0520,0.059
8.724000,-0.0034,-0.0131,-0.1092,0.110
8.724000,-0.0242,-0.0323,-0.0875,0.096
8.731000,-0.0080,-0.0121,-0.0862,0.087
8.737000,-0.0085,-0.0253,-0.0823,0.087
8.740000,0.0031,-0.0694,-0.0739,0.101
8.745000,-0.0138,-0.0395,-0.0574,0.071
8.750000,0.0040,-0.0420,-0.0790,0.090
8.756000,-0.0305,-0.0599,-0.0460,0.081
8.761000,0.0018,-0.0563,-0.0478,0.074
8.777000,-0.0160,-0.0444,-0.0722,0.086
8.778000,-0.0407,-0.0410,-0.0335,0.067
8.779000,0.0060,0.0123,-0.0532,0.055
8.806000,-0.0331,-0.0323,-0.0408,0.062
8.807000,-0.0078,-0.0361,0.0212,0.043
8.807000,0.0171,-0.0695,0.0103,0.072
8.808000,0.0156,-0.0729,-0.0184,0.077
8.808000,0.0352,-0.0561,-0.0483,0.082
8.809000,0.0781,-0.0667,-0.0902,0.137
8.811000,0.1089,-0.0321,-0.1129,0.160
8.816000,0.0934,-0.0074,-0.0975,0.135
8.821000,0.0887,0.0551,-0.1097,0.151
8.826000,0.0768,0.0162,-0.0815,0.113
8.831000,0.0687,0.0370,-0.0547,0.095
8.836000,0.0689,0.0255,-0.0018,0.074
8.841000,0.0692,0.0545,-0.0190,0.090
8.846000,0.0624,0.0536,-0.0561,0.100
8.851000,0.0579,0.0706,-0.0357,0.098
8.856000,0.0441,0.0613,-0.0613,0.097
8.861000,0.0495,0.0770,-0.0829,0.123
8.876000,0.0369,0.0606,-0.0436,0.083
8.877000,0.0495,0.0134,-0.0234,0.056
8.878000,0.0371,0.0319,-0.0091,0.050
8.898000,0.0582,0.0562,-0.0327,0.087
8.899000,0.0305,0.0221,-0.0120,0.040
8.899000,0.0208,0.0073,-0.0258,0.034
8.900000,0.0267,-0.0229,-0.0323,0.048
8.903000,-0.0019,-0.0207,0.0042,0.021
8.907000,0.0040,-0.0137,0.0107,0.018
8.912000,-0.0057,-0.0471,-0.0102,0.049
8.918000,0.0060,-0.0613,-0.0132,0.063
8.922000,0.0354,-0.0480,-0.0057,0.060
8.927000,-0.0068,-0.0633,-0.0340,0.072
8.933000,0.0094,-0.0678,-0.0266,0.073
8.937000,0.0031,-0.0794,-0.0004,0.079
8.942000,-0.0176,-0.0458,-0.0161,0.052
8.947000,-0.0072,-0.0327,-0.0271,0.043
8.952000,0.0031,-0.0505,-0.0146,0.053
8.957000,-0.0283,-0.0184,-0.0034,0.034
8.962000,-0.0380,-0.0412,0.0228,0.060
8.969000,-0.0227,-0.0162,-0.0045,0.028
8.972000,-0.0264,0.0025,0.0039,0.027
8.978000,-0.0481,-0.0121,-0.0115,0.051
8.993000,-0.0232,0.0055,-0.0197,0.031
8.994000,-0.0331,-0.0068,-0.0111,0.036
8.994000,-0.0380,-0.0106,-0.0109,0.041
9.017000,-0.0525,-0.0168,-0.0285,0.062
9.018000,-0.0502,-0.0158,0.0063,0.053
9.018000,-0.0572,-0.0149,-0.0020,0.059
9.019000,-0.0240,0.0312,0.0020,0.039
9.019000,-0.0280,0.0437,0.0001,0.052
9.023000,-0.0235,0.0253,-0.0101,0.036
9.028000,0.0009,-0.0072,-0.0021,0.008
9.033000,-0.0200,0.0282,-0.0024,0.035
9.039000,-0.0171,0.0266,-0.0263,0.041
9.044000,-0.0012,0.0191,-0.0154,0.025
9.050000,-0.0127,0.0081,-0.0187,0.024
9.053000,0.0209,-0.0194,-0.0718,0.077
9.059000,0.0209,0.0104,-0.0414,0.047
9.067000,0.0269,-0.0053,-0.0563,0.063
9.069000,0.0221,-0.0125,-0.0488,0.055
9.074000,0.0019,-0.0149,-0.0605,0.062
9.079000,-0.0097,-0.0042,-0.0602,0.061
9.084000,-0.0165,-0.0008,-0.0707,0.073
9.089000,0.0183,-0.0152,-0.0883,0.091
9.094000,-0.0018,-0.0117,-0.0311,0.033
9.116000,-0.0051,-0.0130,0.0104,0.017
9.117000,-0.0214,-0.0344,0.0362,0.054
9.118000,-0.0555,-0.0259,0.0740,0.096
9.119000,-0.0084,-0.0329,0.0643,0.073
9.121000,-0.0092,-0.0363,0.0966,0.104
9.124000,-0.0074,-0.0468,0.1040,0.114
9.129000,-0.0046,-0.0358,0.0523,0.064
9.143000,0.0089,-0.0391,-0.0130,0.042
9.145000,0.0093,-0.0199,-0.0363,0.042
9.145000,-0.0142,-0.0114,-0.0346,0.039
9.158000,-0.0555,0.0053,-0.0450,0.072
9.160000,-0.0917,0.0218,-0.0531,0.108
9.160000,-0.0495,0.0240,-0.0318,0.064
9.165000,-0.0421,0.0274,-0.0287,0.058
9.170000,-0.0539,0.0533,-0.0271,0.081
9.175000,-0.0193,0.0635,-0.0235,0.070
9.181000,-0.0157,0.0487,0.0048,0.051
9.186000,0.0106,0.0446,0.0053,0.046
9.191000,-0.0203,0.0215,0.0011,0.030
9.196000,-0.0448,-0.0168,0.0513,0.070
9.201000,-0.0299,-0.0478,0.0500,0.075
9.206000,0.0122,-0.0547,0.0656,0.086
9.210000,0.0030,-0.0675,0.1038,0.124
9.215000,0.0210,-0.0766,0.0362,0.087
9.231000,0.0506,-0.0714,0.0297,0.092
9.232000,0.0599,-0.0460,0.0672,0.101
9.233000,0.0915,-0.0160,0.0176,0.095
9.236000,0.1014,-0.0124,-0.0386,0.109
9.243000,0.0790,-0.0052,-0.0398,0.089
9.246000,0.0722,0.0125,-0.0651,0.098
9.263000,0.0666,0.0088,-0.0571,0.088
9.264000,0.0265,0.0277,-0.0470,0.061
9.264000,0.0483,0.0084,-0.0241,0.055
9.276000,0.0415,0.0475,-0.0109,0.064
9.277000,0.0074,0.0197,-0.0383,0.044
9.277000,-0.0322,0.0171,-0.0320,0.049
9.282000,-0.0193,0.0324,0.0030,0.038
9.286000,-0.0099,0.0238,0.0024,0.026
9.291000,-0.0147,-0.0038,0.0118,0.019
9.296000,-0.0385,0.0022,0.0214,0.044
9.303000,-0.0573,0.0211,-0.0030,0.061
9.307000,-0.0237,-0.0003,-0.0019,0.024
9.311000,-0.0356,-0.0169,0.0112,0.041
9.327000,-0.0201,-0.0380,-0.0161,0.046
9.328000,-0.0023,-0.0376,-0.0169,0.041
9.328000,0.0188,-0.0312,-0.0001,0.036
9.331000,0.0528,-0.0357,-0.0109,0.065
9.349000,0.0331,-0.0151,-0.0160,0.040
9.350000,0.0552,-0.0150,-0.0285,0.064
9.351000,0.0510,0.0290,-0.0246,0.064
9.352000,0.0575,0.0193,-0.0176,0.063
9.357000,0.0438,0.0012,-0.0251,0.051
9.362000,0.0563,0.0130,-0.0129,0.059
9.368000,0.0640,0.0163,-0.0010,0.066
9.372000,0.0527,0.0172,-0.0035,0.056
9.377000,0.0224,0.0122,0.0417,0.049
9.383000,0.0209,0.0167,0.0819,0.086
9.388000,0.0277,0.0331,0.0426,0.061
9.393000,0.0070,0.0376,0.0003,0.038
9.397000,-0.0003,0.0527,-0.0222,0.057
9.403000,0.0032,0.0380,-0.0157,0.041
9.407000,-0.0208,0.0483,-0.0232,0.058
9.413000,0.0005,0.0385,-0.0102,0.040
9.429000,0.0182,0.0015,0.0100,0.021
9.430000,0.0001,-0.0032,-0.0174,0.018
9.431000,0.0011,0.0170,-0.0053,0.018
9.432000,0.0069,0.0110,0.0005,0.013
9.456000,0.0020,-0.0033,-0.0377,0.038
9.458000,-0.0182,-0.0057,0.0454,0.049
9.458000,-0.0180,-0.0234,0.0553,0.063
9.459000,-0.0142,0.0337,0.0330,0.049
9.459000,0.0074,-0.0224,0.0750,0.079
9.464000,-0.0081,-0.0353,0.0324,0.049
9.469000,-0.0070,-0.0599,0.0306,0.068
9.473000,0.0106,-0.0344,0.0371,0.052
9.479000,-0.0052,-0.0732,0.0318,0.080
9.485000,0.0241,-0.0464,0.0491,0.072
9.489000,-0.0004,-0.0292,0.0224,0.037
9.494000,0.0239,-0.0217,-0.0065,0.033
9.499000,0.0219,-0.0380,-0.0270,0.052
9.504000,0.0032,-0.0552,0.0025,0.055
9.509000,0.0284,-0.0569,-0.0017,0.064
9.514000,0.0213,-0.0396,-0.0095,0.046
9.531000,0.0107,-0.0332,-0.0053,0.035
9.532000,0.0133,-0.0541,-0.0024,0.056
9.532000,0.0302,-0.0664,0.0076,0.073
9.536000,0.0028,-0.0514,0.0151,0.054
9.540000,0.0101,-0.0282,-0.0106,0.032
9.545000,0.0209,0.0043,-0.0159,0.027
9.550000,0.0067,-0.0097,0.0217,0.025
9.560000,0.0010,-0.0047,0.0186,0.019
9.561000,0.0095,0.0015,-0.0035,0.010
9.565000,-0.0010,0.0077,0.0054,0.009
9.576000,-0.0089,0.0078,0.0212,0.024
9.577000,-0.0002,0.0079,0.0250,0.026
9.580000,0.0193,0.0282,0.0417,0.054
9.590000,0.0291,-0.0051,0.0059,0.030
9.591000,0.0138,0.0057,0.0415,0.044
9.596000,0.0116,0.0118,0.0282,0.033
9.602000,0.0214,0.0475,0.0327,0.061
9.606000,0.0181,0.0187,0.0346,0.043
9.611000,0.0112,0.0222,0.0282,0.038
9.616000,0.0220,0.0174,0.0182,0.033
9.620000,0.0197,0.0020,-0.0368,0.042
9.626000,-0.0100,0.0248,-0.0557,0.062
9.631000,0.0056,-0.0013,-0.0305,0.031
9.649000,-0.0170,0.0416,-0.0162,0.048
9.650000,0.0106,0.0237,-0.0519,0.058
9.651000,0.0298,0.0035,-0.0230,0.038
9.652000,0.0119,0.0392,-0.0372,0.055
9.656000,-0.0178,0.0095,-0.0392,0.044
9.661000,0.0109,0.0571,-0.0305,0.066
9.666000,0.0192,0.0153,-0.0455,0.052
9.680000,0.0144,-0.0083,-0.0603,0.063
9.681000,0.0324,0.0026,-0.0335,0.047
9.681000,0.0384,-0.0091,-0.0554,0.068
9.693000,0.0243,-0.0136,-0.0474,0.055
9.694000,0.0008,-0.0252,-0.0146,0.029
9.696000,0.0072,-0.0320,-0.0176,0.037
9.707000,0.0137,-0.0244,-0.0158,0.032
9.708000,-0.0095,-0.0336,-0.0270,0.044
9.711000,-0.0265,-0.0403,-0.0450,0.066
9.717000,-0.0089,-0.0612,-0.0022,0.062
9.722000,0.0381,-0.0511,0.0046,0.064
9.727000,0.0088,-0.0102,-0.0171,0.022
9.731000,0.0130,-0.0349,-0.0172,0.041
9.747000,0.0279,-0.0523,-0.0020,0.059
9.748000,0.0141,-0.0363,-0.0214,0.044
9.749000,0.0087,-0.0026,-0.0622,0.063
9.754000,0.0235,-0.0001,-0.0648,0.069
9.762000,0.0369,0.0107,-0.0511,0.064
9.762000,0.0312,-0.0012,-0.0495,0.059
9.773000,0.0505,-0.0141,-0.0730,0.090
9.774000,0.0377,-0.0080,-0.0445,0.059
9.777000,0.0391,-0.0020,-0.0187,0.043
9.783000,0.0370,-0.0245,-0.0120,0.046
9.787000,0.0194,-0.0373,-0.0282,0.051
9.793000,0.0435,-0.0393,-0.0099,0.059
9.797000,0.0152,-0.0461,0.0461,0.067
9.803000,0.0563,-0.0363,0.0674,0.095
9.809000,0.0509,-0.0788,0.0780,0.122
9.812000,0.0099,-0.0758,0.0911,0.119
9.819000,-0.0176,-0.0598,0.0378,0.073
9.823000,-0.0199,-0.0535,-0.0162,0.059
9.827000,-0.0019,-0.0329,-0.0519,0.062
9.833000,-0.0138,-0.0185,-0.0841,0.087
9.838000,-0.0233,0.0136,-0.1305,0.133
9.843000,-0.0151,0.0787,-0.1330,0.155
9.847000,-0.0141,0.0672,-0.1060,0.126
9.864000,0.0237,0.0250,-0.0579,0.067
9.865000,-0.0040,0.0389,-0.0255,0.047
9.866000,-0.0004,0.0432,0.0341,0.055
9.868000,0.0258,0.0308,0.0354,0.054
9.875000,0.0044,0.0351,0.0094,0.037
9.879000,-0.0167,-0.0271,-0.0326,0.046
9.883000,-0.0304,-0.0378,-0.0195,0.052
9.894000,-0.0117,-0.0424,-0.0231,0.050
9.895000,-0.0146,-0.0364,-0.0171,0.043
9.899000,-0.0164,-0.0494,0.0102,0.053
9.907000,-0.0051,-0.0503,0.0375,0.063
9.908000,0.0026,-0.0466,0.0027,0.047
9.913000,0.0281,-0.0167,0.0264,0.042
9.922000,0.0451,-0.0323,-0.0037,0.056
9.923000,0.0524,0.0010,-0.0230,0.057
9.929000,0.0441,-0.0242,-0.0615,0.079
9.936000,0.0239,-0.0088,-0.0654,0.070
9.940000,0.0429,0.0255,-0.0661,0.083
9.944000,0.0189,0.0155,-0.0647,0.069
9.950000,-0.0085,0.0175,-0.0872,0.089
9.954000,0.0083,0.0243,-0.0458,0.052
9.960000,-0.0036,0.0274,-0.0499,0.057
9.965000,-0.0106,0.0114,-0.0016,0.016
9.983000,-0.0104,0.0266,-0.0103,0.030
9.984000,0.0016,-0.0012,-0.0283,0.028
9.985000,-0.0126,0.0046,-0.0185,0.023
9.985000,-0.0276,-0.0182,-0.0380,0.050
9.989000,-0.0248,-0.0158,-0.0332,0.044
9.995000,-0.0232,-0.0336,-0.0212,0.046
10.000000,-0.0275,-0.0157,-0.0102,0.033
10.010000,-0.0306,-0.0346,-0.0465,0.066
10.011000,-0.0243,-0.0190,-0.0587,0.066
10.015000,-0.0037,-0.0474,-0.0458,0.066
10.022000,0.0297,-0.0328,-0.0212,0.049
10.025000,0.0319,-0.0030,-0.0278,0.042
10.030000,0.0390,-0.0315,-0.0582,0.077
10.036000,0.0447,-0.0100,-0.0494,0.067
10.040000,0.0231,-0.0171,-0.0396,0.049
10.046000,0.0480,-0.0112,-0.0384,0.063
10.051000,0.0561,0.0160,-0.0434,0.073
10.056000,0.0357,0.0287,-0.0463,0.065
10.060000,0.0071,0.0295,-0.0267,0.040
10.065000,0.0110,0.0527,-0.0357,0.065
10.081000,0.0005,0.0260,-0.0279,0.038
10.082000,-0.0325,0.0066,-0.0355,0.049
10.083000,-0.0106,0.0052,-0.0331,0.035
10.107000,0.0085,0.0359,-0.0351,0.051
10.108000,-0.0022,0.0213,-0.0488,0.053
10.109000,-0.0223,-0.0098,-0.0860,0.089
10.109000,-0.0245,-0.0157,-0.0906,0.095
10.111000,0.0162,0.0070,-0.0916,0.093
10.112000,-0.0242,-0.0145,-0.0962,0.100
10.116000,0.0260,-0.0121,-0.0497,0.057
10.121000,0.0165,-0.0192,-0.0689,0.073
10.127000,-0.0108,-0.0535,-0.0406,0.068
10.131000,0.0133,-0.0294,-0.0504,0.060
10.136000,0.0147,-0.0103,-0.0152,0.024
10.141000,0.0055,-0.0377,-0.0172,0.042
10.146000,0.0093,-0.0280,-0.0477,0.056
10.151000,0.0120,-0.0624,-0.0328,0.072
10.156000,0.0159,-0.0502,-0.0383,0.065
10.161000,-0.0064,-0.0428,-0.0531,0.069
10.167000,-0.0024,-0.0521,-0.0429,0.067
10.172000,0.0110,-0.0684,-0.0649,0.095
10.177000,-0.0065,-0.0217,-0.0320,0.039
10.181000,0.0080,-0.0501,-0.0777,0.093
10.200000,0.0439,-0.0771,-0.0422,0.098
10.201000,0.0533,-0.0552,-0.0866,0.116
10.202000,0.0402,-0.0680,-0.0819,0.114
10.204000,0.0355,-0.0758,-0.0869,0.121
10.206000,0.0628,-0.0575,-0.0646,0.107
10.212000,0.0506,-0.0406,-0.0592,0.088
10.217000,0.0349,-0.0332,-0.0752,0.089
10.230000,0.0504,-0.0283,-0.0983,0.114
10.231000,0.0207,-0.0485,-0.0464,0.070
10.232000,0.0068,-0.0304,-0.0187,0.036
10.245000,-0.0165,-0.0387,-0.0555,0.070
10.246000,-0.0111,-0.0398,-0.0434,0.060
10.247000,-0.0104,-0.0065,-0.0195,0.023
10.259000,0.0094,0.0004,-0.0494,0.050
10.260000,-0.0008,-0.0248,-0.0279,0.037
10.263000,-0.0003,-0.0403,-0.0280,0.049
10.268000,0.0027,-0.0141,-0.0305,0.034
10.273000,-0.0015,-0.0059,-0.0224,0.023
10.278000,-0.0010,-0.0037,-0.0299,0.030
10.283000,0.0243,0.0020,-0.0004,0.024
10.300000,0.0672,-0.0421,-0.0211,0.082
10.302000,0.0551,-0.0313,-0.0311,0.071
10.303000,0.0015,-0.0336,-0.0328,0.047
10.304000,-0.0008,-0.0335,-0.0215,0.040
10.309000,0.0399,-0.0085,-0.0531,0.067
10.314000,0.0351,-0.0170,-0.0608,0.072
10.318000,0.0421,-0.0289,-0.0411,0.066
10.329000,0.0146,-0.0230,-0.0404,0.049
10.330000,0.0586,-0.0396,-0.0362,0.079
10.333000,0.0358,-0.0264,-0.0486,0.066
10.340000,0.0297,-0.0062,-0.0359,0.047
10.345000,0.0439,-0.0075,-0.0599,0.075
10.349000,0.0355,-0.0289,-0.0588,0.075
10.353000,0.0519,-0.0277,-0.0611,0.085
10.359000,0.0469,-0.0276,-0.0549,0.077
10.364000,0.0300,-0.0156,-0.0607,0.070
10.370000,0.0203,0.0022,-0.0462,0.051
10.373000,0.0250,-0.0228,-0.0793,0.086
10.379000,0.0154,-0.0263,-0.0303,0.043
10.384000,0.0214,-0.0452,-0.0398,0.064
10.389000,0.0047,-0.0533,-0.0552,0.077
10.393000,-0.0131,0.0052,0.0184,0.023
10.399000,0.0049,-0.0282,-0.0178,0.034
10.414000,0.0193,-0.0412,-0.0406,0.061
10.414000,0.0121,-0.0244,-0.0170,0.032
10.415000,0.0016,-0.0327,0.0076,0.034
10.437000,0.0147,-0.0171,-0.0178,0.029
10.438000,0.0122,-0.0325,-0.0084,0.036
10.438000,0.0133,0.0045,-0.0289,0.032
10.439000,0.0204,-0.0016,-0.0374,0.043
10.440000,0.0511,-0.0064,-0.0696,0.087
10.445000,0.0424,0.0054,-0.0279,0.051
10.450000,0.0267,-0.0043,-0.0948,0.099
10.455000,0.0063,0.0063,-0.0924,0.093
10.460000,0.0159,0.0096,-0.0866,0.089
10.465000,0.0053,-0.0085,-0.0726,0.073
10.471000,0.0268,0.0092,-0.0705,0.076
10.475000,0.0385,-0.0338,-0.0221,0.056
10.480000,0.0359,-0.0372,-0.0405,0.066
10.485000,0.0060,-0.0525,-0.0325,0.062
10.490000,0.0096,-0.0819,0.0064,0.083
10.495000,0.0134,-0.0790,-0.0026,0.080
10.501000,0.0111,-0.0940,0.0741,0.120
10.518000,0.0114,-0.0779,0.0827,0.114
10.519000,0.0200,-0.0715,0.0925,0.119
10.520000,-0.0142,-0.0771,0.0647,0.102
10.522000,-0.0196,-0.0659,0.0099,0.069
10.526000,-0.0049,-0.0358,-0.0743,0.083
10.531000,-0.0342,-0.0155,-0.0748,0.084
10.535000,-0.0089,-0.0071,-0.0850,0.086
10.546000,0.0137,0.0296,-0.0788,0.085
10.547000,0.0099,0.0257,-0.0468,0.054
10.551000,0.0026,0.0207,0.0075,0.022
10.560000,0.0262,0.0192,0.0698,0.077
10.561000,-0.0034,0.0094,0.0380,0.039
10.567000,-0.0137,0.0056,0.0219,0.026
10.575000,-0.0440,-0.0018,0.0013,0.044
10.576000,-0.0265,0.0253,-0.0465,0.059
10.581000,-0.0448,-0.0132,-0.0084,0.047
10.588000,-0.0416,-0.0121,-0.0146,0.046
10.592000,0.0007,-0.0371,0.0196,0.042
10.597000,0.0294,-0.0453,0.0143,0.056
10.602000,0.0188,-0.0344,-0.0016,0.039
10.606000,0.0308,-0.0272,-0.0149,0.044
10.612000,0.0558,-0.0271,0.0289,0.068
10.617000,0.0840,-0.0401,-0.0085,0.093
10.634000,0.0893,-0.0280,-0.0408,0.102
10.636000,0.0731,-0.0065,-0.0599,0.095
10.636000,0.0831,-0.0113,-0.0625,0.105
10.639000,0.0645,-0.0196,-0.0604,0.090
10.648000,0.0589,0.0244,-0.0809,0.103
10.648000,0.0272,0.0063,-0.0990,0.103
10.652000,0.0006,0.0062,-0.0527,0.053
10.662000,0.0193,-0.0022,-0.0613,0.064
10.663000,0.0093,-0.0058,-0.0305,0.032
10.668000,-0.0195,-0.0259,-0.0150,0.036
10.676000,-0.0396,-0.0044,-0.0171,0.043
10.677000,-0.0097,-0.0269,-0.0035,0.029
10.683000,-0.0311,-0.0326,-0.0561,0.072
10.691000,-0.0322,-0.0334,-0.0321,0.056
10.692000,-0.0107,0.0120,-0.0033,0.016
10.698000,0.0355,-0.0082,-0.0174,0.040
10.703000,0.0196,-0.0187,-0.0457,0.053
10.708000,0.0205,0.0171,-0.0392,0.047
10.713000,0.0143,-0.0020,-0.0246,0.029
10.718000,0.0188,0.0076,-0.0104,0.023
10.733000,0.0115,0.0075,0.0095,0.017
10.734000,0.0315,0.0051,-0.0256,0.041
10.735000,0.0395,-0.0021,-0.0308,0.050
10.738000,0.0072,0.0026,-0.0149,0.017
10.743000,0.0179,0.0239,-0.0136,0.033
10.749000,0.0061,0.0045,-0.0328,0.034
10.759000,-0.0009,0.0091,-0.0317,0.033
10.760000,-0.0174,0.0326,-0.0236,0.044
10.764000,-0.0384,0.0286,-0.0475,0.067
10.769000,-0.0545,0.0567,-0.0271,0.083
10.775000,-0.0004,0.0252,-0.0280,0.038
10.779000,-0.0167,0.0214,-0.0264,0.038
10.784000,-0.0008,0.0068,-0.0210,0.022
10.788000,-0.0125,-0.0099,-0.0475,0.050
10.794000,0.0081,-0.0206,-0.0690,0.073
10.799000,0.0002,0.0162,-0.0620,0.064
10.805000,0.0232,0.0088,-0.0278,0.037
10.809000,-0.0086,-0.0093,-0.0426,0.044
10.814000,-0.0056,-0.0153,-0.0523,0.055
10.820000,0.0153,-0.0225,-0.0598,0.066
10.825000,0.0217,-0.0118,-0.0293,0.038
10.829000,0.0376,-0.0393,0.0010,0.054
10.834000,0.0475,-0.0380,-0.0048,0.061
10.851000,0.0312,-0.0023,-0.0223,0.038
10.852000,0.0627,-0.0168,-0.0396,0.076
10.852000,0.0488,-0.0300,-0.0176,0.060
10.856000,0.0466,-0.0157,-0.0360,0.061
10.860000,0.0361,0.0258,-0.0743,0.087
10.865000,0.0234,-0.0138,-0.0197,0.034
10.880000,0.0404,-0.0542,-0.0533,0.086
10.881000,0.0264,-0.0421,-0.0402,0.064
10.882000,0.0434,-0.0454,-0.0238,0.067
10.885000,0.0697,-0.0274,-0.0608,0.097
10.892000,0.0685,-0.0226,-0.0787,0.107
10.894000,0.0639,-0.0214,-0.0586,0.089
10.901000,0.0498,-0.0239,-0.0567,0.079
10.906000,0.0454,-0.0322,-0.0953,0.110
10.911000,0.0197,-0.0299,-0.0746,0.083
10.916000,0.0526,-0.0123,-0.0412,0.068
10.922000,0.0247,-0.0066,-0.0377,0.046
10.926000,-0.0099,0.0346,-0.0273,0.045
10.931000,-0.0015,-0.0018,-0.0350,0.035
10.936000,-0.0085,-0.0094,-0.0402,0.042
10.942000,0.0024,-0.0086,-0.0156,0.018
10.946000,-0.0070,-0.0019,0.0136,0.015
10.951000,0.0063,-0.0142,-0.0073,0.017
10.969000,0.0089,-0.0170,-0.0256,0.032
10.971000,-0.0061,-0.0127,-0.0117,0.018
10.971000,0.0206,-0.0155,-0.0002,0.026
10.972000,0.0091,-0.0219,-0.0446,0.051
10.976000,0.0096,-0.0294,-0.0127,0.033
10.981000,-0.0184,-0.0333,-0.0083,0.039
10.986000,0.0252,-0.0384,-0.0160,0.049
10.999000,0.0398,-0.0268,-0.0154,0.050
11.001000,0.0447,-0.0676,0.0006,0.081
11.001000,0.0295,-0.0225,-0.0239,0.044
11.014000,0.0037,-0.0146,-0.0233,0.028
11.015000,0.0399,-0.0175,-0.0130,0.045
11.017000,0.0282,-0.0131,-0.0004,0.031
11.029000,0.0273,-0.0243,-0.0271,0.045
11.030000,0.0038,-0.0353,-0.0214,0.041
11.031000,0.0231,-0.0118,-0.0191,0.032
11.037000,-0.0065,0.0140,-0.0311,0.035
11.041000,0.0069,-0.0080,-0.0431,0.044
11.046000,0.0190,-0.0073,-0.0419,0.047
11.052000,0.0192,-0.0196,-0.0385,0.047
11.067000,-0.0069,-0.0164,-0.0151,0.023
11.068000,-0.0126,-0.0262,-0.0407,0.050
11.069000,-0.0004,0.0020,-0.0375,0.038
11.094000,-0.0286,-0.0057,-0.0001,0.029
11.095000,-0.0483,-0.0334,-0.0091,0.059
11.096000,-0.0287,-0.0123,-0.0228,0.039
11.097000,-0.0305,-0.0080,-0.0032,0.032
11.097000,-0.0264,-0.0369,-0.0051,0.046
11.097000,-0.0377,-0.0324,0.0050,0.050
11.103000,-0.0109,-0.0066,-0.0124,0.018
11.107000,0.0156,-0.0082,-0.0069,0.019
11.112000,-0.0114,-0.0229,-0.0014,0.026
11.118000,0.0044,-0.0161,0.0052,0.017
11.122000,0.0024,-0.0046,-0.0097,0.011
11.127000,-0.0103,-0.0087,0.0099,0.017
11.132000,0.0293,0.0265,0.0055,0.040
11.139000,-0.0013,0.0067,-0.0321,0.033
11.143000,0.0289,0.0025,-0.0209,0.036
11.148000,0.0149,0.0078,-0.0075,0.018
11.153000,-0.0095,0.0142,-0.0549,0.057
11.158000,0.0065,0.0467,-0.0640,0.079
11.163000,0.0343,0.0279,-0.0790,0.091
11.169000,0.0156,0.0258,-0.0619,0.069
11.188000,-0.0018,0.0380,-0.0401,0.055
11.189000,0.0247,0.0241,0.0254,0.043
11.190000,0.0226,0.0173,0.0681,0.074
11.193000,-0.0032,-0.0297,0.0229,0.038
11.193000,0.0471,-0.0656,0.0412,0.091
11.198000,0.0437,-0.0763,0.0916,0.127
11.203000,0.0347,-0.0786,0.0787,0.116
11.216000,0.0377,-0.0928,0.0635,0.119
11.217000,0.0015,-0.0939,0.0734,0.119
11.220000,-0.0213,-0.1116,0.0262,0.117
11.230000,-0.0415,-0.0899,-0.0264,0.103
11.231000,-0.0487,-0.0815,-0.0454,0.105
11.234000,-0.0428,-0.0576,-0.0499,0.087
11.244000,-0.0383,0.0195,-0.0581,0.072
11.246000,-0.0186,0.0176,-0.0888,0.092
11.249000,0.0043,0.0170,-0.0636,0.066
11.256000,-0.0111,0.0128,-0.0232,0.029
11.260000,0.0070,0.0206,0.0465,0.051
11.265000,0.0312,0.0258,0.0847,0.094
11.270000,0.0281,-0.0249,0.0656,0.076
11.275000,0.0454,-0.0645,0.0679,0.104
11.279000,0.0189,-0.0826,0.0688,0.109
11.284000,-0.0227,-0.0803,0.0767,0.113
11.301000,0.0085,-0.0769,0.0452,0.090
11.302000,0.0074,-0.0699,0.0388,0.080
11.303000,0.0193,-0.0405,0.0252,0.051
11.305000,0.0451,-0.0207,0.0129,0.051
11.310000,0.0598,0.0191,0.0409,0.075
11.314000,0.0459,0.0432,0.0203,0.066
11.320000,0.0486,0.0683,0.0271,0.088
11.325000,0.0477,0.0659,0.0161,0.083
11.330000,0.0253,0.0837,-0.0552,0.103
11.335000,0.0139,0.0705,-0.0275,0.077
11.340000,0.0144,0.0598,-0.0629,0.088
11.345000,0.0114,0.0563,-0.0458,0.073
11.350000,-0.0047,0.0457,-0.0502,0.068
11.356000,-0.0158,0.0067,-0.0367,0.041
11.360000,-0.0088,0.0083,-0.0350,0.037
11.365000,-0.0067,0.0135,-0.0270,0.031
11.370000,-0.0141,-0.0086,-0.0342,0.038
11.375000,-0.0558,-0.0222,-0.0153,0.062
11.380000,0.0002,-0.0416,-0.0451,0.061
11.385000,-0.0322,-0.0526,-0.0413,0.074
11.403000,-0.0464,-0.0468,-0.0363,0.075
11.405000,-0.0367,-0.0316,-0.0147,0.051
11.405000,0.0121,-0.0415,-0.0042,0.043
11.411000,0.0166,-0.0383,0.0001,0.042
11.412000,0.0305,-0.0030,0.0101,0.032
11.416000,0.0241,-0.0191,0.0127,0.033
11.421000,0.0345,-0.0161,-0.0003,0.038
11.429000,0.0400,0.0130,0.0186,0.046
11.430000,0.0205,0.0026,0.0052,0.021
11.436000,0.0214,0.0078,0.0356,0.042
11.443000,-0.0073,0.0010,0.0453,0.046
11.446000,0.0058,-0.0117,0.0074,0.015
11.451000,0.0461,0.0125,0.0123,0.049
11.462000,-0.0161,0.0068,-0.0409,0.045
11.463000,-0.0053,-0.0083,0.0106,0.014
11.466000,-0.0207,-0.0423,0.0296,0.056
11.473000,0.0164,-0.0535,0.0010,0.056
11.477000,0.0022,-0.0266,-0.0058,0.027
11.481000,-0.0155,-0.0166,0.0028,0.023
11.486000,-0.0021,-0.0470,0.0056,0.047
11.492000,-0.0172,-0.0724,-0.0273,0.079
11.496000,-0.0404,-0.0656,-0.0660,0.101
11.502000,-0.0110,-0.0458,-0.0166,0.050
11.517000,-0.0081,-0.0179,-0.0058,0.020
11.518000,0.0007,-0.0270,0.0025,0.027
11.518000,0.0166,-0.0123,0.0176,0.027
11.540000,0.0111,-0.0049,-0.0244,0.027
11.541000,0.0282,-0.0046,-0.0139,0.032
11.542000,0.0357,0.0146,-0.0047,0.039
11.542000,0.0277,0.0134,0.0126,0.033
11.543000,0.0233,0.0195,0.0085,0.031
11.548000,0.0236,0.0147,-0.0279,0.039
11.553000,0.0146,0.0124,-0.0463,0.050
11.557000,-0.0076,0.0374,0.0030,0.038
11.563000,0.0073,0.0123,-0.0455,0.048
11.567000,0.0447,-0.0197,-0.0736,0.088
11.573000,0.0073,-0.0100,-0.1100,0.111
11.578000,-0.0298,0.0055,-0.0394,0.050
11.583000,-0.0024,-0.0230,-0.0324,0.040
11.588000,0.0071,-0.0537,-0.0234,0.059
11.593000,-0.0048,-0.0605,-0.0479,0.077
11.598000,-0.0199,-0.0459,-0.0133,0.052
11.604000,-0.0049,-0.0374,-0.0101,0.039
11.621000,0.0079,-0.0517,-0.0300,0.060
11.622000,0.0160,-0.0552,-0.0584,0.082
11.623000,0.0361,-0.0101,-0.0595,0.070
11.624000,0.0005,-0.0342,-0.0372,0.051
11.629000,0.0080,-0.0369,-0.0203,0.043
11.634000,0.0108,-0.0336,-0.0095,0.037
11.650000,0.0148,-0.0244,0.0022,0.029
11.651000,0.0236,-0.0581,-0.0066,0.063
11.652000,-0.0007,-0.0357,0.0462,0.058
11.653000,-0.0175,-0.0267,0.0688,0.076
11.664000,-0.0091,-0.0533,0.0663,0.086
11.665000,-0.0135,-0.0513,0.0520,0.074
11.669000,0.0165,-0.0303,0.0637,0.072
11.676000,0.0086,-0.0285,0.0907,0.095
11.679000,-0.0135,-0.0504,0.0735,0.090
11.685000,-0.0154,-0.0852,0.0741,0.114
11.690000,-0.0124,-0.0616,0.1090,0.126
11.694000,-0.0094,-0.0726,0.1223,0.143
11.699000,-0.0312,-0.0467,0.1332,0.145
11.704000,-0.0505,-0.0388,0.1048,0.123
11.709000,-0.0340,-0.0808,0.1241,0.152
11.714000,-0.0366,-0.0643,0.1184,0.140
11.720000,-0.0533,-0.0741,0.1272,0.157
11.734000,-0.0461,-0.0754,0.1667,0.189
11.734000,-0.0329,-0.0792,0.1216,0.149
11.735000,-0.0353,-0.0935,0.0922,0.136
11.739000,-0.0815,-0.0924,0.1152,0.169
11.757000,-0.0632,-0.1043,0.0975,0.156
11.758000,-0.0448,-0.1078,0.1497,0.190
11.758000,-0.0288,-0.1125,0.0979,0.152
11.759000,-0.0401,-0.0947,0.0735,0.126
11.765000,-0.0418,-0.0983,0.1143,0.156
11.770000,-0.0289,-0.1103,0.0844,0.142
11.775000,-0.0373,-0.1188,0.0816,0.149
11.780000,-0.0407,-0.0986,0.0821,0.135
11.786000,-0.0273,-0.0964,0.0776,0.127
11.790000,-0.0127,-0.1003,0.0800,0.129
11.794000,-0.0148,-0.1052,0.1404,0.176
11.800000,-0.0616,-0.0960,0.1491,0.188
11.805000,-0.0815,-0.1106,0.1138,0.178
11.810000,-0.0822,-0.0942,0.1452,0.192
11.816000,-0.0970,-0.1184,0.1240,0.197
11.821000,-0.0995,-0.1328,0.1161,0.203
11.834000,-0.1482,-0.0842,0.1212,0.209
11.835000,-0.1312,-0.1025,0.0989,0.194
11.837000,-0.1202,-0.0779,0.1051,0.178
11.857000,-0.1254,-0.0630,0.0815,0.162
11.858000,-0.1007,-0.0234,0.0626,0.121
11.858000,-0.0768,-0.0329,0.0775,0.114
11.859000,-0.0860,-0.0329,0.0320,0.097
11.861000,-0.0561,-0.0292,-0.0295,0.070
11.866000,-0.0320,-0.0054,-0.0173,0.037
11.872000,-0.0576,0.0087,-0.0175,0.061
11.876000,-0.0139,-0.0154,0.0055,0.021
11.882000,-0.0107,-0.0214,-0.0149,0.028
11.887000,0.0177,-0.0026,-0.0250,0.031
11.892000,0.0463,-0.0420,-0.0201,0.066
11.896000,0.0191,-0.0812,-0.0132,0.084
11.901000,0.0140,-0.0986,0.0255,0.103
11.907000,0.0235,-0.1516,-0.0005,0.153
11.911000,0.0118,-0.1780,-0.0333,0.181
11.917000,0.0028,-0.1673,-0.0672,0.180
11.922000,0.0296,-0.1888,-0.1067,0.219
11.926000,0.0065,-0.1946,-0.1588,0.251
11.932000,-0.0033,-0.2051,-0.2239,0.304
11.937000,0.0189,-0.1976,-0.2412,0.312
11.953000,0.0266,-0.2815,-0.2383,0.370
11.954000,0.0133,-0.2829,-0.1917,0.342
11.954000,-0.0254,-0.2415,-0.1574,0.289
11.978000,-0.0265,-0.2550,-0.1000,0.275
11.979000,-0.0013,-0.2922,-0.0338,0.294
11.979000,-0.0139,-0.3576,-0.0132,0.358
11.980000,0.0011,-0.4675,0.0215,0.468
11.980000,0.0155,-0.5041,0.0478,0.507
11.983000,0.0005,-0.5382,0.0519,0.541
11.988000,0.0217,-0.5543,0.0741,0.560
11.993000,0.0144,-0.6492,0.0478,0.651
11.998000,0.0550,-0.7093,0.0654,0.714
12.004000,0.1234,-0.7370,0.1104,0.755
12.009000,0.1493,-0.6810,0.1278,0.709
12.013000,0.1086,-0.6310,0.0850,0.646
12.019000,0.0390,-0.6850,0.0873,0.692
12.026000,0.0411,-0.7137,0.0006,0.715
12.028000,0.0347,-0.6991,0.0063,0.700
12.034000,0.0568,-0.7012,0.0172,0.704
12.039000,0.0717,-0.6935,0.0234,0.698
12.044000,0.0615,-0.6774,0.0380,0.681
12.049000,0.0752,-0.6515,0.0853,0.661
12.054000,0.0699,-0.6280,0.1290,0.645
12.072000,0.0755,-0.6282,0.1599,0.653
12.073000,0.0597,-0.6569,0.1956,0.688
12.074000,0.0631,-0.6639,0.1671,0.688
12.074000,0.0431,-0.6600,0.2009,0.691
12.079000,0.0473,-0.6763,0.1498,0.694
12.084000,-0.0056,-0.6852,0.0821,0.690
12.089000,-0.0034,-0.6866,0.1172,0.697
12.104000,0.0169,-0.7368,0.1534,0.753
12.105000,-0.0164,-0.7879,0.1315,0.799
12.106000,-0.0220,-0.7383,0.1694,0.758
12.109000,-0.0074,-0.7494,0.2113,0.779
12.114000,0.0209,-0.7710,0.3004,0.828
12.119000,0.0288,-0.7792,0.3041,0.837
12.125000,0.0437,-0.7800,0.1992,0.806
12.128000,0.0776,-0.7973,0.1055,0.808
12.134000,0.0818,-0.7857,0.0785,0.794
12.142000,0.0983,-0.7560,0.0310,0.763
12.146000,0.0754,-0.7608,0.0715,0.768
12.150000,0.0837,-0.7808,0.0661,0.788
12.154000,0.1099,-0.7922,0.0602,0.802
12.170000,0.0558,-0.8117,0.0936,0.819
12.171000,-0.0100,-0.8154,0.0941,0.821
12.172000,0.0031,-0.8176,0.1242,0.827
12.174000,-0.0486,-0.8147,0.0596,0.818
12.180000,-0.0512,-0.8367,-0.0003,0.838
12.184000,-0.0872,-0.8333,-0.0223,0.838
12.195000,-0.1136,-0.9025,-0.0066,0.910
12.196000,-0.1554,-0.9055,-0.0524,0.920
12.200000,-0.1468,-0.8819,-0.0380,0.895
12.205000,-0.1333,-0.9106,-0.0194,0.920
12.211000,-0.1723,-0.9557,-0.0117,0.971
12.216000,-0.1652,-1.0374,0.0489,1.052
12.220000,-0.1650,-1.0757,0.0914,1.092
12.225000,-0.1515,-1.0742,0.2056,1.104
12.231000,-0.1729,-1.1061,0.2557,1.148
12.236000,-0.1877,-1.1485,0.2645,1.193
12.241000,-0.1981,-1.2098,0.2033,1.243
12.246000,-0.1878,-1.2660,0.1305,1.287
12.251000,-0.1866,-1.3267,-0.0245,1.340
12.256000,-0.1537,-1.3202,0.0038,1.329
12.269000,-0.1067,-1.3373,-0.0721,1.343
12.271000,-0.0815,-1.3182,-0.1168,1.326
12.272000,-0.0298,-1.3107,-0.1084,1.316
12.305000,0.0245,-1.2814,-0.0361,1.282
12.307000,0.0181,-1.2493,-0.0873,1.253
12.307000,0.0144,-1.2587,-0.0892,1.262
12.308000,0.0470,-1.2304,-0.0345,1.232
12.309000,0.0250,-1.2317,-0.0226,1.232
12.309000,0.0059,-1.2361,-0.0040,1.236
12.310000,0.0102,-1.1968,-0.0189,1.197
12.313000,0.0081,-1.2287,-0.0002,1.229
12.317000,-0.0241,-1.2157,0.0295,1.216
12.323000,-0.0662,-1.2249,0.0619,1.228
12.328000,-0.0656,-1.2430,0.0577,1.246
12.333000,-0.1066,-1.2232,0.0652,1.230
12.338000,-0.1918,-1.1969,0.0588,1.214
12.343000,-0.2461,-1.1902,0.0482,1.216
12.348000,-0.2847,-1.1457,0.1130,1.186
12.352000,-0.3355,-1.0312,0.1233,1.091
12.359000,-0.4121,-0.9796,0.1046,1.068
12.363000,-0.4608,-1.0387,0.1707,1.149
12.367000,-0.5183,-0.9658,0.2110,1.116
12.373000,-0.5889,-0.8519,0.2128,1.057
12.378000,-0.6983,-0.7352,0.2829,1.053
12.383000,-0.7999,-0.5821,0.3707,1.056
12.388000,-0.7837,-0.4791,0.4514,1.023
12.407000,-0.7686,-0.4630,0.5656,1.061
12.409000,-0.7964,-0.4422,0.6974,1.147
12.409000,-0.7836,-0.3557,0.7541,1.144
12.410000,-0.7843,-0.3392,0.8177,1.183
12.413000,-0.7874,-0.3003,0.8112,1.170
12.418000,-0.8241,-0.2633,0.8513,1.214
12.423000,-0.7607,-0.2510,0.9319,1.229
12.435000,-0.7192,-0.2479,0.9384,1.208
12.436000,-0.6960,-0.2489,1.0159,1.256
12.439000,-0.6887,-0.2587,1.0195,1.257
12.449000,-0.6278,-0.2212,0.9864,1.190
12.449000,-0.6016,-0.2762,0.9615,1.167
12.453000,-0.5801,-0.3469,0.9088,1.133
12.461000,-0.5232,-0.3779,0.8636,1.078
12.462000,-0.4405,-0.4269,0.8477,1.046
12.469000,-0.4010,-0.4915,0.8263,1.042
12.473000,-0.3665,-0.5573,0.7304,0.989
12.479000,-0.3354,-0.5670,0.6461,0.923
12.484000,-0.3582,-0.5996,0.6188,0.933
12.489000,-0.2785,-0.6206,0.5832,0.896
12.514000,-0.2102,-0.6636,0.5416,0.882
12.515000,-0.1475,-0.6819,0.5408,0.883
12.516000,-0.1359,-0.6720,0.4837,0.839
12.516000,-0.1099,-0.6711,0.3741,0.776
12.523000,-0.0615,-0.6829,0.3821,0.785
12.524000,-0.0120,-0.7419,0.2833,0.794
12.524000,0.0150,-0.7258,0.2525,0.769
12.542000,0.0592,-0.7520,0.2500,0.795
12.544000,0.1505,-0.7761,0.2290,0.823
12.544000,0.1612,-0.8050,0.2358,0.854
12.547000,0.1717,-0.8996,0.2605,0.952
12.549000,0.1652,-0.9487,0.2950,1.007
12.554000,0.1561,-0.9797,0.3352,1.047
12.564000,0.1242,-0.9877,0.3526,1.056
12.565000,0.0854,-1.0195,0.3471,1.080
12.570000,0.0839,-1.0535,0.3833,1.124
12.576000,0.0576,-1.0539,0.4434,1.145
12.580000,0.0139,-1.0133,0.4540,1.110
12.584000,-0.0554,-0.9977,0.4528,1.097
12.590000,-0.1476,-0.9581,0.5137,1.097
12.602000,-0.2279,-0.8995,0.5404,1.074
12.603000,-0.2793,-0.8491,0.5324,1.040
12.603000,-0.3556,-0.8058,0.6407,1.089
12.623000,-0.4272,-0.6945,0.7407,1.102
12.626000,-0.4965,-0.6047,0.7464,1.081
12.627000,-0.5682,-0.5546,0.7753,1.110
12.628000,-0.6521,-0.4591,0.8164,1.141
12.629000,-0.7336,-0.3362,0.8603,1.180
12.635000,-0.8020,-0.2351,0.8102,1.164
12.639000,-0.8955,-0.1666,0.7919,1.207
12.645000,-0.9657,-0.0599,0.6499,1.166
12.650000,-0.9727,0.0504,0.5551,1.121
12.656000,-1.0656,0.1584,0.6268,1.246
12.660000,-1.1713,0.2183,0.9659,1.534
12.665000,-1.2808,0.1884,1.2768,1.818
12.670000,-1.3582,0.1352,1.4240,1.972
12.676000,-1.3960,0.0388,1.3380,1.934
12.679000,-1.4990,-0.0053,1.2264,1.937
12.686000,-1.5907,-0.0461,1.1931,1.989
12.690000,-1.6113,-0.0561,1.1446,1.977
12.701000,-1.6881,0.0438,1.1033,2.017
12.702000,-1.7125,0.0876,0.8519,1.915
12.706000,-1.6667,0.0377,0.7919,1.846
12.721000,-1.5206,0.0091,0.8532,1.744
12.722000,-1.3410,-0.0635,0.8164,1.571
12.723000,-1.0857,-0.1010,0.7973,1.351
12.734000,-0.8957,-0.1046,0.8975,1.272
12.735000,-0.8384,-0.1092,0.8136,1.173
12.736000,-0.6823,-0.1472,0.5545,0.891
12.745000,-0.5644,-0.2397,0.4126,0.739
12.746000,-0.4065,-0.3528,0.3721,0.654
12.751000,-0.1423,-0.5212,0.5801,0.793
12.756000,0.0008,-0.6014,0.7491,0.961
12.761000,0.0895,-0.6148,0.7238,0.954
12.766000,0.1735,-0.6357,0.6606,0.933
12.772000,0.2616,-0.6792,0.5973,0.942
12.777000,0.3429,-0.6794,0.5675,0.949
12.781000,0.3632,-0.6700,0.6090,0.976
12.787000,0.3487,-0.5646,0.5254,0.846
12.792000,0.3250,-0.4316,0.4413,0.698
12.797000,0.2743,-0.3917,0.3815,0.612
12.802000,0.3068,-0.4779,0.2581,0.624
12.807000,0.3767,-0.6377,0.2152,0.771
12.812000,0.3785,-0.7308,0.2982,0.875
12.818000,0.3582,-0.8353,0.3268,0.966
12.823000,0.3318,-0.8558,0.4426,1.019
12.841000,0.2116,-0.7245,0.6006,0.965
12.842000,0.1753,-0.7012,0.7830,1.066
12.843000,0.1481,-0.7167,0.9181,1.174
12.844000,0.0545,-0.6535,1.0059,1.201
12.847000,-0.0183,-0.6303,0.9867,1.171
12.853000,-0.0690,-0.5956,1.0078,1.173
12.857000,-0.1415,-0.4979,1.0370,1.159
12.871000,-0.2358,-0.4438,1.0167,1.134
12.873000,-0.3745,-0.4198,0.8739,1.039
12.874000,-0.4221,-0.3565,0.7868,0.961
12.885000,-0.4305,-0.2133,0.8221,0.952
12.886000,-0.4402,-0.0827,0.9993,1.095
12.888000,-0.4206,-0.0305,0.9311,1.022
12.897000,-0.4569,0.0052,0.7690,0.895
12.898000,-0.4771,0.0950,0.6831,0.839
12.903000,-0.3992,0.1877,0.5784,0.727
12.910000,-0.3274,0.3140,0.5428,0.707
12.913000,-0.2545,0.4277,0.4551,0.674
12.919000,-0.1874,0.6209,0.3843,0.754
12.924000,-0.1188,0.7921,0.3684,0.882
12.940000,-0.0713,1.0014,0.3842,1.075
12.941000,-0.0339,1.2245,0.4334,1.299
12.942000,0.0239,1.4151,0.2942,1.446
12.945000,0.0799,1.6833,0.3288,1.717
12.949000,0.0674,1.8977,0.3360,1.928
12.954000,0.1248,2.1456,0.3362,2.175
12.969000,0.1843,2.3016,0.4654,2.355
12.970000,0.2533,2.3477,0.6088,2.439
12.971000,0.2928,2.6561,0.6682,2.754
12.975000,0.1929,3.2726,0.5609,3.326
12.981000,0.1010,3.8188,0.2974,3.832
12.984000,0.0669,4.2278,0.0701,4.229
12.990000,0.0791,4.7810,0.1814,4.785
12.995000,0.1788,5.2029,0.4078,5.222
13.000000,0.3185,5.2983,-0.0398,5.308
13.005000,0.5145,5.4488,-0.3780,5.486
13.010000,0.7131,5.5445,-0.7191,5.636
13.015000,0.8911,5.4211,-0.9435,5.574
13.020000,0.9411,5.4243,-1.4190,5.685
13.027000,0.9782,5.5661,-1.5295,5.855
13.030000,1.0210,5.7291,-1.3599,5.976
13.035000,1.0367,5.6944,-1.2392,5.919
13.041000,1.1098,5.3587,-1.3967,5.648
13.062000,1.1860,5.0211,-1.6615,5.420
13.063000,1.3096,4.7943,-1.6802,5.246
13.064000,1.4283,4.5908,-1.5169,5.041
13.064000,1.6331,4.3087,-1.2560,4.776
13.068000,1.9570,3.9385,-0.6659,4.448
13.072000,1.9130,4.1907,-0.5180,4.636
13.076000,1.8736,4.3249,-0.3584,4.727
13.089000,1.9016,4.2456,-0.2783,4.660
13.091000,1.9816,4.2324,-0.1743,4.677
13.091000,1.9512,4.3234,-0.1759,4.747
13.103000,1.7747,4.2908,-0.3042,4.653
13.104000,1.6236,4.0675,-0.5880,4.419
13.106000,1.4307,3.8152,-0.7920,4.151
13.117000,1.2111,3.7145,-0.8481,3.998
13.118000,0.9839,3.4878,-1.0158,3.764
13.122000,0.8120,3.2110,-1.3435,3.574
13.127000,0.7458,2.9750,-1.5605,3.441
13.131000,0.6730,2.7336,-1.6125,3.244
13.136000,0.6751,2.4807,-1.6447,3.052
13.142000,0.7160,2.2354,-1.5902,2.835
13.154000,0.7871,1.9356,-1.4582,2.548
13.155000,0.8108,1.6875,-1.3789,2.325
13.156000,0.8225,1.4900,-1.3724,2.186
13.180000,0.7816,1.2532,-1.3467,1.999
13.181000,0.8040,0.9545,-1.3583,1.845
13.181000,0.8170,0.7324,-1.3355,1.728
13.182000,0.7771,0.5462,-1.3760,1.672
13.182000,0.7766,0.2929,-1.4832,1.700
13.187000,0.7680,0.0961,-1.5570,1.739
13.193000,0.6975,-0.1187,-1.6439,1.790
13.198000,0.6501,-0.3429,-1.6690,1.824
13.202000,0.5908,-0.5826,-1.6271,1.826
13.207000,0.5707,-0.8724,-1.6314,1.936
13.213000,0.5363,-1.1275,-1.6331,2.056
13.217000,0.5233,-1.3919,-1.6204,2.199
13.223000,0.5015,-1.6419,-1.6683,2.394
13.228000,0.5093,-1.8893,-1.6419,2.554
13.233000,0.4843,-2.1664,-1.6020,2.738
13.238000,0.4383,-2.3584,-1.5621,2.863
13.243000,0.4226,-2.6159,-1.6897,3.143
13.248000,0.4373,-2.7809,-1.6673,3.272
13.253000,0.4490,-2.9085,-1.6551,3.376
13.259000,0.4648,-3.1170,-1.6251,3.546
13.280000,0.4382,-3.2195,-1.6367,3.638
13.281000,0.4782,-3.3097,-1.6501,3.729
13.281000,0.4821,-3.3384,-1.5619,3.717
13.284000,0.4406,-3.3571,-1.4070,3.667
13.285000,0.4146,-3.3216,-1.3787,3.620
13.289000,0.3805,-3.2488,-1.3863,3.553
13.316000,0.3070,-3.1326,-1.3234,3.415
13.317000,0.2446,-3.0283,-1.3441,3.322
13.318000,0.1754,-2.8952,-1.2963,3.177
13.318000,0.0792,-2.7536,-1.3189,3.054
13.319000,-0.0167,-2.5724,-1.2373,2.855
13.319000,-0.1079,-2.4021,-1.2172,2.695
13.324000,-0.1911,-2.1911,-1.1821,2.497
13.329000,-0.2270,-2.0771,-1.0529,2.340
13.334000,-0.2313,-1.9128,-1.0126,2.177
13.340000,-0.2091,-1.7927,-1.0379,2.082
13.346000,-0.2296,-1.6727,-1.0168,1.971
13.350000,-0.2041,-1.5441,-1.0670,1.888
13.354000,-0.1839,-1.3784,-1.0163,1.722
13.359000,-0.1537,-1.2282,-0.9248,1.545
13.380000,-0.0915,-1.0731,-0.9255,1.420
13.381000,-0.0310,-0.8593,-0.8776,1.229
13.381000,0.0040,-0.6419,-0.7403,0.980
13.382000,0.0623,-0.4449,-0.5902,0.742
13.385000,0.1096,-0.1916,-0.5944,0.634
13.389000,0.1965,0.0890,-0.5722,0.611
13.413000,0.2383,0.3753,-0.4935,0.664
13.414000,0.2844,0.6303,-0.4349,0.817
13.414000,0.2870,0.8491,-0.4526,1.004
13.415000,0.2800,1.0593,-0.4197,1.173
13.415000,0.2957,1.2454,-0.4174,1.346
13.420000,0.2566,1.3989,-0.3458,1.464
13.425000,0.1863,1.5690,-0.2751,1.604
13.430000,0.0500,1.7329,-0.2841,1.757
13.435000,-0.0532,1.8369,-0.3119,1.864
13.440000,-0.2194,1.9863,-0.2404,2.013
13.445000,-0.2583,2.1320,-0.0695,2.149
13.450000,-0.2420,2.2321,0.1091,2.248
13.456000,-0.2373,2.2962,0.2082,2.318
13.462000,-0.1726,2.3829,0.2849,2.406
13.465000,-0.1636,2.4323,0.3464,2.462
13.470000,-0.1506,2.4517,0.3917,2.487
13.476000,-0.0941,2.4877,0.4305,2.526
13.494000,-0.0120,2.4937,0.4457,2.533
13.495000,0.0368,2.4422,0.4171,2.478
13.496000,0.1328,2.3835,0.3877,2.418
13.496000,0.2338,2.2842,0.3432,2.322
13.500000,0.3197,2.2148,0.2484,2.252
13.505000,0.4136,2.1180,0.1976,2.167
13.518000,0.4998,1.9890,0.1130,2.054
13.519000,0.5043,1.8231,-0.0188,1.892
13.520000,0.5158,1.6573,-0.1371,1.741
13.526000,0.4648,1.4978,-0.2268,1.585
13.532000,0.4564,1.3062,-0.2835,1.412
13.536000,0.3674,1.1186,-0.2832,1.211
13.541000,0.3080,0.9635,-0.2663,1.046
13.546000,0.2851,0.8014,-0.2197,0.879
13.551000,0.2629,0.7424,-0.1924,0.811
13.556000,0.1876,0.6381,-0.1527,0.682
13.561000,0.1966,0.5841,-0.1422,0.632
13.566000,0.1916,0.5648,-0.0876,0.603
13.571000,0.2309,0.5084,-0.0255,0.559
13.576000,0.3015,0.4401,-0.0644,0.537
13.581000,0.3485,0.3634,-0.1238,0.519
13.586000,0.3742,0.3655,-0.1738,0.551
13.593000,0.4089,0.3018,-0.2265,0.556
13.619000,0.4141,0.1795,-0.2400,0.511
13.620000,0.4375,0.1111,-0.2801,0.531
13.620000,0.3964,-0.0004,-0.3206,0.510
13.621000,0.3616,-0.1046,-0.3556,0.518
13.621000,0.3139,-0.2793,-0.3684,0.559
13.625000,0.2685,-0.4694,-0.3878,0.665
13.669000,0.2433,-0.6018,-0.4522,0.791
13.670000,0.2061,-0.7280,-0.5105,0.913
13.670000,0.1616,-0.8577,-0.5878,1.052
13.671000,0.0904,-0.9764,-0.6349,1.168
13.672000,0.0319,-1.0841,-0.7133,1.298
13.672000,-0.0128,-1.2107,-0.7534,1.426
13.672000,-0.0211,-1.2497,-0.8238,1.497
13.673000,-0.0684,-1.3711,-0.8973,1.640
13.673000,-0.0627,-1.4898,-0.9573,1.772
13.673000,-0.0325,-1.5126,-1.0192,1.824
13.678000,0.0053,-1.5687,-0.9877,1.854
13.683000,-0.0209,-1.5803,-0.9728,1.856
13.688000,-0.0489,-1.6277,-0.9780,1.900
13.693000,-0.0741,-1.6641,-0.9725,1.929
13.707000,-0.0927,-1.6656,-0.9038,1.897
13.708000,-0.0762,-1.6826,-0.7715,1.853
13.709000,-0.0829,-1.6360,-0.6703,1.770
13.728000,-0.1261,-1.6384,-0.5964,1.748
13.729000,-0.1436,-1.6192,-0.4645,1.691
13.729000,-0.1209,-1.5414,-0.3237,1.580
13.730000,-0.1766,-1.4862,-0.2179,1.512
13.733000,-0.1995,-1.4240,-0.0597,1.439
13.738000,-0.2218,-1.3234,0.0544,1.343
13.743000,-0.2235,-1.3127,0.0098,1.332
13.748000,-0.2354,-1.2230,0.0373,1.246
13.753000,-0.2346,-1.1059,0.1499,1.140
13.758000,-0.2443,-1.0929,0.0756,1.122
13.763000,-0.2726,-0.9747,0.0913,1.016
13.768000,-0.2597,-0.8794,0.0393,0.918
13.773000,-0.2509,-0.8128,0.0150,0.851
13.779000,-0.2403,-0.7462,-0.0296,0.784
13.784000,-0.2349,-0.6916,-0.1496,0.746
13.789000,-0.2049,-0.5485,-0.0872,0.592
13.794000,-0.1565,-0.4389,-0.0169,0.466
13.800000,-0.1182,-0.3593,-0.1441,0.405
13.804000,-0.1221,-0.3000,-0.0111,0.324
13.809000,-0.0941,-0.1894,0.0260,0.213
13.828000,-0.0294,-0.0322,0.0404,0.059
13.829000,-0.0188,0.0938,0.0979,0.137
13.830000,0.0193,0.2745,0.1200,0.300
13.830000,0.0648,0.3403,0.0959,0.359
13.834000,0.0328,0.4716,0.1164,0.487
13.839000,0.0527,0.5884,0.1561,0.611
13.861000,0.0732,0.7181,0.0979,0.728
13.863000,0.0167,0.8118,0.2549,0.851
13.864000,-0.0253,0.8431,0.3654,0.919
13.864000,-0.0455,0.8468,0.3508,0.918
13.865000,-0.0472,0.8840,0.4024,0.972
13.870000,-0.0855,0.9174,0.4280,1.016
13.875000,-0.1164,0.9507,0.4217,1.047
13.881000,-0.1217,1.0365,0.4219,1.126
13.885000,-0.1109,1.0862,0.3746,1.154
13.891000,-0.1057,1.1478,0.3421,1.202
13.895000,-0.0717,1.1865,0.3576,1.241
13.910000,-0.0564,1.2240,0.3122,1.264
13.911000,-0.0649,1.2518,0.2703,1.282
13.911000,-0.0050,1.2246,0.2346,1.247
13.915000,0.0168,1.2536,0.1964,1.269
13.919000,0.0340,1.2287,0.1676,1.241
13.925000,0.1461,1.1764,0.1289,1.192
13.937000,0.1833,1.1766,0.1102,1.196
13.938000,0.2212,1.1482,0.0970,1.173
13.940000,0.2706,1.0970,0.0927,1.134
13.949000,0.3005,1.0315,0.0947,1.079
13.950000,0.3375,0.9672,0.1141,1.031
13.956000,0.3359,0.9197,0.1199,0.986
13.961000,0.3664,0.8028,0.1468,0.895
13.966000,0.3557,0.7409,0.1748,0.840
13.971000,0.3125,0.6934,0.2349,0.796
13.976000,0.2606,0.6303,0.2299,0.720
13.981000,0.1977,0.5541,0.1781,0.615
13.986000,0.1245,0.5293,0.1922,0.577
13.991000,0.0159,0.5022,0.1228,0.517
13.996000,-0.0350,0.4702,0.0548,0.475
14.001000,-0.0633,0.4515,0.0287,0.457
14.006000,-0.1385,0.3658,-0.1003,0.404
14.010000,-0.1253,0.2863,-0.0916,0.326
14.016000,-0.0872,0.2105,-0.0673,0.238
14.021000,-0.0447,0.0894,-0.0953,0.138
14.027000,-0.0013,0.0473,-0.0967,0.108
14.041000,0.0395,-0.0437,-0.1146,0.129
14.041000,0.0886,-0.1549,-0.1266,0.219
14.042000,0.1041,-0.2457,-0.0930,0.283
14.070000,0.1363,-0.3088,-0.1241,0.360
14.071000,0.1146,-0.3875,-0.1250,0.423
14.072000,0.1442,-0.4265,-0.0900,0.459
14.072000,0.1283,-0.4536,-0.0598,0.475
14.073000,0.1504,-0.4926,-0.1009,0.525
14.073000,0.1294,-0.5458,-0.1538,0.582
14.077000,0.1095,-0.5847,-0.2007,0.628
14.082000,0.0860,-0.6056,-0.2055,0.645
14.087000,0.0902,-0.6527,-0.2402,0.701
14.093000,0.1087,-0.6879,-0.2293,0.733
14.097000,0.0877,-0.7290,-0.2257,0.768
14.102000,0.0870,-0.7521,-0.1609,0.774
14.107000,0.0767,-0.8015,-0.1989,0.829
14.123000,0.0496,-0.8449,-0.2475,0.882
14.123000,0.0394,-0.8918,-0.2195,0.919
14.124000,0.0017,-0.8884,-0.1881,0.908
14.127000,0.0178,-0.8910,-0.1902,0.911
14.146000,0.0063,-0.9150,-0.1518,0.928
14.148000,-0.0258,-0.8913,-0.0966,0.897
14.148000,-0.0053,-0.8878,-0.1057,0.894
14.149000,-0.0101,-0.8689,-0.0835,0.873
14.153000,-0.0018,-0.8105,-0.0790,0.814
14.158000,-0.0080,-0.7702,-0.0838,0.775
14.163000,-0.0131,-0.7430,-0.0825,0.748
14.168000,-0.0088,-0.7040,-0.0571,0.706
14.173000,-0.0310,-0.6469,-0.0717,0.652
14.180000,-0.0068,-0.5648,-0.0290,0.566
14.183000,0.0004,-0.5318,-0.0095,0.532
14.188000,0.0122,-0.4820,0.0216,0.483
14.193000,0.0551,-0.4478,0.1446,0.474
14.198000,0.0129,-0.3814,0.1288,0.403
14.203000,-0.0171,-0.3043,0.1359,0.334
14.208000,-0.0232,-0.2285,0.1528,0.276
14.213000,-0.0305,-0.1839,0.1484,0.238
14.218000,-0.0088,-0.1334,0.1763,0.221
14.223000,-0.0410,-0.1153,0.1886,0.225
14.230000,-0.0504,-0.0626,0.1700,0.188
14.233000,-0.0108,-0.0481,0.1884,0.195
14.239000,-0.0344,-0.0456,0.1565,0.167
14.244000,-0.0171,0.0596,0.1713,0.182
14.262000,-0.0010,0.1109,0.1848,0.216
14.263000,-0.0385,0.1705,0.1971,0.263
14.264000,-0.0233,0.2277,0.1723,0.286
14.267000,-0.0237,0.2967,0.1438,0.331
14.268000,-0.0061,0.3106,0.1297,0.337
14.274000,-0.0052,0.3509,0.1333,0.375
14.295000,-0.0125,0.3768,0.1595,0.409
14.296000,-0.0043,0.4062,0.1759,0.443
14.297000,0.0148,0.4679,0.1753,0.500
14.298000,0.0027,0.5080,0.1755,0.538
14.301000,0.0314,0.5123,0.2055,0.553
14.305000,-0.0116,0.5344,0.2018,0.571
14.310000,0.0053,0.5231,0.1762,0.552
14.314000,-0.0232,0.5381,0.2104,0.578
14.320000,0.0022,0.5520,0.2323,0.599
14.325000,-0.0082,0.5765,0.2649,0.635
14.331000,-0.0042,0.5915,0.2186,0.631
14.334000,-0.0205,0.6029,0.2036,0.637
14.340000,-0.0080,0.5807,0.1848,0.609
14.362000,-0.0170,0.5766,0.1802,0.604
14.363000,0.0076,0.5724,0.2079,0.609
14.364000,0.0096,0.5515,0.1854,0.582
14.364000,-0.0002,0.5629,0.1665,0.587
14.365000,0.0032,0.5300,0.1550,0.552
14.371000,0.0164,0.5199,0.1470,0.541
14.375000,-0.0085,0.4619,0.1346,0.481
14.392000,0.0037,0.4506,0.1354,0.470
14.393000,0.0206,0.4034,0.1124,0.419
14.394000,0.0533,0.3599,0.0859,0.374
14.395000,0.0082,0.3164,0.0535,0.321
14.407000,0.0146,0.3136,0.0667,0.321
14.409000,0.0592,0.2211,0.0967,0.248
14.411000,0.0451,0.2053,0.0454,0.215
14.422000,0.0692,0.1967,0.0252,0.210
14.423000,0.0789,0.1259,0.0481,0.156
14.425000,0.0802,0.0971,0.0400,0.132
14.433000,0.0945,0.0539,0.0345,0.114
14.437000,0.1375,0.0371,0.0553,0.153
14.441000,0.1182,-0.0299,0.0116,0.122
14.448000,0.0988,-0.0216,-0.0054,0.101
14.452000,0.1082,-0.0766,-0.0140,0.133
14.457000,0.1034,-0.0813,-0.0188,0.133
14.462000,0.1055,-0.1195,-0.0426,0.165
14.482000,0.1091,-0.1578,-0.0554,0.200
14.483000,0.0756,-0.1948,-0.0332,0.212
14.483000,0.0972,-0.2258,-0.0456,0.250
14.484000,0.1103,-0.2400,-0.0422,0.267
14.487000,0.0969,-0.2543,-0.0505,0.277
14.492000,0.0739,-0.2984,-0.0406,0.310
14.517000,0.0974,-0.3353,-0.0521,0.353
14.517000,0.1342,-0.3638,-0.0898,0.398
14.518000,0.1160,-0.4019,-0.0316,0.419
14.519000,0.1084,-0.4100,-0.0537,0.427
14.519000,0.0971,-0.4408,-0.0447,0.454
14.522000,0.1289,-0.4979,-0.0259,0.515
14.528000,0.1187,-0.4844,-0.0704,0.504
14.532000,0.1086,-0.4709,-0.0216,0.484
14.537000,0.0983,-0.4442,0.0044,0.455
14.543000,0.0748,-0.4546,0.0147,0.461
14.548000,0.0466,-0.4710,0.0272,0.474
14.552000,0.0660,-0.4180,-0.0319,0.424
14.558000,0.0447,-0.3818,-0.0335,0.386
14.562000,0.0041,-0.3409,-0.0125,0.341
14.580000,-0.0017,-0.3382,-0.0334,0.340
14.582000,0.0031,-0.3117,-0.0552,0.317
14.584000,0.0006,-0.2935,-0.0734,0.303
14.584000,-0.0091,-0.2754,-0.0607,0.282
14.588000,-0.0093,-0.2333,-0.0621,0.242
14.593000,0.0263,-0.2344,-0.0336,0.238
14.617000,0.0365,-0.2426,0.0414,0.249
14.618000,0.0444,-0.2329,0.0831,0.251
14.619000,0.0366,-0.2244,0.1356,0.265
14.620000,0.0564,-0.2399,0.1918,0.312
14.620000,0.0655,-0.2195,0.1822,0.293
14.623000,0.0268,-0.1919,0.1942,0.274
14.629000,0.0075,-0.1871,0.1604,0.247
14.637000,-0.0213,-0.1643,0.1670,0.235
14.639000,-0.0320,-0.0781,0.1492,0.171
14.645000,-0.0594,-0.0255,0.0977,0.117
14.654000,-0.1276,0.0410,0.0859,0.159
14.655000,-0.1371,0.1070,0.0560,0.183
14.659000,-0.1146,0.1536,-0.0285,0.194
14.666000,-0.1339,0.1653,-0.0582,0.221
14.669000,-0.1187,0.1735,0.0167,0.211
14.674000,-0.0842,0.2128,0.0571,0.236
14.680000,-0.0507,0.2067,0.0625,0.222
14.698000,-0.0506,0.1839,0.1421,0.238
14.699000,-0.0158,0.1850,0.1932,0.268
14.700000,0.0226,0.2027,0.2038,0.288
14.702000,-0.0060,0.2229,0.1906,0.293
14.708000,0.0240,0.2226,0.2002,0.300
14.709000,0.0111,0.1805,0.1991,0.269
14.745000,-0.0160,0.2413,0.2113,0.321
14.748000,-0.0133,0.2565,0.1721,0.309
14.749000,-0.0309,0.3064,0.1460,0.341
14.750000,-0.0270,0.3060,0.1260,0.332
14.750000,-0.0364,0.3129,0.0762,0.324
14.751000,-0.0228,0.2945,0.0385,0.298
14.751000,-0.0259,0.2786,0.0714,0.289
14.752000,-0.0087,0.2937,0.0482,0.298
14.754000,0.0002,0.3005,-0.0048,0.301
14.759000,0.0022,0.2917,-0.0362,0.294
14.765000,-0.0330,0.2948,-0.0065,0.297
14.770000,-0.0525,0.2764,-0.0067,0.281
14.775000,-0.0325,0.2377,-0.0115,0.240
14.782000,-0.0028,0.2505,0.0161,0.251
14.784000,-0.0138,0.2010,0.0101,0.202
14.790000,-0.0139,0.1863,0.0234,0.188
14.795000,-0.0058,0.1632,-0.0133,0.164
14.810000,0.0179,0.1473,-0.0309,0.152
14.811000,0.0081,0.0991,-0.0055,0.100
14.811000,-0.0066,0.0881,-0.0361,0.095
14.841000,0.0170,0.0400,-0.0403,0.059
14.842000,0.0165,0.0489,-0.0456,0.069
14.843000,0.0015,0.0684,-0.0592,0.090
14.843000,0.0260,0.0320,-0.0736,0.084
14.844000,0.0323,0.0124,-0.1091,0.114
14.845000,0.0418,-0.0129,-0.1406,0.147
14.845000,0.0596,-0.0534,-0.1221,0.146
14.852000,0.0652,-0.0663,-0.1429,0.170
14.856000,0.0791,-0.0945,-0.1231,0.174
14.861000,0.0692,-0.1011,-0.1448,0.190
14.868000,0.0570,-0.1457,-0.1237,0.199
14.871000,0.0675,-0.1471,-0.1157,0.199
14.876000,0.0650,-0.1676,-0.1268,0.220
14.893000,0.0399,-0.1926,-0.1081,0.224
14.894000,0.0315,-0.2233,-0.1051,0.249
14.895000,0.0410,-0.2265,-0.0605,0.238
14.897000,0.0279,-0.2522,-0.0544,0.260
14.902000,0.0018,-0.2338,-0.0293,0.236
14.907000,0.0068,-0.2297,0.0109,0.230
14.912000,-0.0037,-0.2566,-0.0276,0.258
14.918000,-0.0438,-0.2595,0.0010,0.263
14.922000,-0.0528,-0.2172,0.0079,0.224
14.927000,-0.0512,-0.1836,-0.0458,0.196
14.932000,-0.0499,-0.1906,-0.0468,0.203
14.937000,-0.0414,-0.1786,-0.0584,0.192
14.942000,-0.0329,-0.1928,-0.0427,0.200
14.947000,-0.0210,-0.1939,0.0097,0.195
14.952000,0.0001,-0.1901,0.0224,0.191
14.957000,-0.0347,-0.1472,-0.0067,0.151
14.962000,0.0067,-0.1474,0.0332,0.151
14.968000,0.0015,-0.1653,-0.0162,0.166
14.973000,-0.0405,-0.1784,-0.0474,0.189
14.977000,-0.0655,-0.1676,-0.0263,0.182
14.982000,-0.0998,-0.1153,0.0112,0.153
14.988000,-0.0958,-0.1027,0.0162,0.141
14.993000,-0.0694,-0.0948,-0.0321,0.122
14.999000,-0.0979,-0.0526,0.0158,0.112
15.003000,-0.0847,-0.0523,-0.0007,0.100
15.008000,-0.0776,-0.0496,0.0113,0.093
15.013000,-0.0659,-0.0208,-0.0005,0.069
15.028000,-0.0591,-0.0065,0.0078,0.060
15.029000,-0.0891,0.0077,0.0160,0.091
15.030000,-0.0512,0.0492,0.0371,0.080
15.062000,-0.0622,0.0463,0.0188,0.080
15.063000,-0.1064,0.0672,-0.0042,0.126
15.064000,-0.0849,0.0856,0.0276,0.124
15.065000,-0.0922,0.1276,0.0033,0.157
15.066000,-0.0983,0.1123,0.0207,0.151
15.066000,-0.1042,0.1184,0.0261,0.160
15.067000,-0.1173,0.1459,0.0362,0.191
15.068000,-0.0947,0.1447,0.0236,0.174
15.073000,-0.0687,0.1755,0.0564,0.197
15.079000,-0.0180,0.1431,0.0165,0.145
15.085000,-0.0151,0.1181,0.0374,0.125
15.089000,-0.0324,0.1325,0.0664,0.152
15.094000,-0.0519,0.1528,0.0512,0.169
15.111000,-0.0855,0.1539,0.0241,0.178
15.113000,-0.0630,0.1597,0.0232,0.173
15.113000,-0.0421,0.1525,0.0351,0.162
15.114000,-0.0700,0.1845,0.0173,0.198
15.136000,-0.0395,0.1736,0.0126,0.178
15.137000,-0.0460,0.1805,0.0339,0.189
15.137000,-0.0086,0.1755,0.0217,0.177
15.138000,-0.0285,0.1243,0.0358,0.132
15.138000,-0.0268,0.1768,0.0212,0.180
15.143000,0.0295,0.1540,0.0164,0.158
15.149000,0.0211,0.1564,0.0164,0.159
15.154000,-0.0026,0.1147,0.0545,0.127
15.159000,-0.0130,0.0960,0.0307,0.102
15.166000,-0.0222,0.0964,-0.0060,0.099
15.169000,-0.0136,0.0541,0.0078,0.056
15.174000,-0.0207,0.0632,0.0321,0.074
15.179000,-0.0005,0.0342,0.0077,0.035
15.185000,0.0063,0.0126,-0.0011,0.014
15.190000,0.0226,-0.0006,-0.0241,0.033
15.195000,0.0150,-0.0136,0.0053,0.021
15.200000,0.0275,-0.0075,-0.0094,0.030
15.205000,0.0433,-0.0003,-0.0418,0.060
15.210000,0.0684,-0.0109,-0.0149,0.071
15.216000,0.0364,-0.0274,-0.0629,0.078
15.220000,0.0424,-0.0199,-0.0986,0.109
15.225000,0.0223,-0.0304,-0.1271,0.133
15.230000,0.0391,-0.0181,-0.1555,0.161
15.248000,0.0296,0.0142,-0.1482,0.152
15.249000,0.0274,-0.0012,-0.1170,0.120
15.250000,0.0135,0.0167,-0.1310,0.133
15.253000,-0.0230,-0.0023,-0.1235,0.126
15.256000,0.0072,0.0013,-0.0933,0.094
15.260000,0.0336,-0.0331,-0.0310,0.056
15.281000,0.0644,-0.0922,0.0488,0.123
15.283000,0.0987,-0.1176,0.0570,0.164
15.283000,0.0472,-0.1226,0.0537,0.142
15.285000,0.0484,-0.1490,0.0706,0.172
15.286000,0.0413,-0.1811,0.0540,0.193
15.291000,0.0273,-0.1761,0.0696,0.191
15.296000,0.0337,-0.1534,0.0186,0.158
15.301000,0.0138,-0.1214,-0.0534,0.133
15.306000,-0.0440,-0.0837,-0.1009,0.138
15.311000,-0.0408,-0.0356,-0.1767,0.185
15.316000,-0.0565,-0.0080,-0.2117,0.219
15.321000,-0.0283,-0.0020,-0.2394,0.241
15.326000,-0.0467,-0.0222,-0.2089,0.215
15.334000,-0.0530,-0.0184,-0.1517,0.162
15.336000,-0.0165,-0.0337,-0.0951,0.102
15.342000,0.0125,-0.0499,-0.0035,0.052
15.347000,0.0342,-0.0743,0.0161,0.083
15.364000,0.0022,-0.1093,0.0605,0.125
15.365000,0.0038,-0.1154,0.1070,0.157
15.366000,0.0029,-0.0812,0.1473,0.168
15.368000,-0.0039,-0.1065,0.1041,0.149
15.372000,-0.0370,-0.0902,0.1088,0.146
15.379000,-0.0354,-0.0454,0.1064,0.121
15.398000,-0.0494,-0.0521,0.0993,0.123
15.399000,-0.0528,-0.0338,0.0732,0.096
15.400000,-0.0504,-0.0109,0.0035,0.052
15.400000,-0.0493,0.0273,0.0293,0.064
15.404000,-0.0199,0.0426,-0.0200,0.051
15.408000,-0.0098,0.0364,-0.0189,0.042
15.413000,-0.0319,0.0647,-0.0263,0.077
15.420000,0.0079,0.0690,-0.0216,0.073
15.422000,0.0022,0.0970,-0.0156,0.098
15.428000,-0.0094,0.0654,-0.0178,0.068
15.445000,-0.0006,0.0661,-0.0199,0.069
15.446000,-0.0156,0.0870,-0.0257,0.092
15.447000,0.0003,0.0673,-0.0289,0.073
15.471000,-0.0195,0.0679,-0.0118,0.072
15.472000,0.0298,0.0662,0.0288,0.078
15.473000,0.0215,0.0182,0.0158,0.032
15.473000,0.0216,0.0193,0.0158,0.033
15.473000,0.0135,-0.0140,0.0383,0.043
15.474000,0.0280,0.0087,0.0024,0.029
15.479000,0.0483,0.0312,0.0391,0.070
15.484000,0.0423,0.0038,-0.0087,0.043
15.488000,0.0686,-0.0057,-0.0207,0.072
15.493000,0.0625,0.0134,-0.0088,0.065
15.500000,0.0742,0.0134,-0.0115,0.076
15.504000,0.0859,0.0313,-0.0106,0.092
15.509000,0.0774,0.0383,-0.0384,0.094
15.513000,0.0904,0.0381,-0.0624,0.116
15.519000,0.0854,0.0320,-0.0269,0.095
15.524000,0.0781,0.0153,-0.0252,0.083
15.528000,0.0506,0.0296,-0.0234,0.063
15.534000,0.0365,0.0710,-0.0454,0.092
15.539000,0.0355,0.0801,-0.0552,0.104
15.544000,0.0227,0.0867,-0.0020,0.090
15.565000,0.0265,0.0826,0.0034,0.087
15.566000,0.0256,0.0761,0.0050,0.080
15.567000,0.0080,0.0614,0.0079,0.062
15.568000,0.0213,0.0515,0.0132,0.057
15.568000,0.0535,0.0228,0.0078,0.059
15.574000,0.0402,0.0156,-0.0165,0.046
15.580000,0.0236,0.0085,0.0010,0.025
15.598000,0.0380,-0.0105,0.0006,0.039
15.599000,0.0367,0.0076,-0.0020,0.038
15.600000,0.0094,-0.0078,0.0287,0.031
15.601000,0.0108,-0.0136,0.0236,0.029
15.606000,0.0048,-0.0110,0.0316,0.034
15.610000,0.0203,0.0010,0.0040,0.021
15.617000,0.0178,0.0011,0.0028,0.018
15.622000,0.0390,-0.0475,-0.0018,0.062
15.625000,0.0126,-0.0375,-0.0077,0.040
15.631000,0.0254,-0.0395,-0.0254,0.053
15.636000,0.0132,-0.0545,-0.0015,0.056
15.640000,0.0200,-0.0444,-0.0002,0.049
15.645000,0.0187,-0.0428,-0.0228,0.052
15.652000,0.0124,-0.0459,-0.0177,0.051
15.655000,0.0003,-0.0347,-0.0163,0.038
15.660000,-0.0141,-0.0652,-0.0305,0.073
15.686000,-0.0032,-0.0598,-0.0504,0.078
15.689000,-0.0127,-0.0367,-0.0274,0.048
15.690000,0.0123,-0.0422,-0.0155,0.047
15.691000,-0.0010,-0.0524,-0.0406,0.066
15.691000,-0.0034,-0.0470,-0.0406,0.062
15.696000,0.0002,-0.0228,-0.0904,0.093
15.696000,0.0050,-0.0462,-0.0757,0.089
15.718000,0.0014,-0.0219,-0.0470,0.052
15.720000,-0.0104,-0.0299,-0.0470,0.057
15.720000,-0.0029,-0.0235,-0.0958,0.099
15.721000,-0.0297,0.0029,-0.0397,0.050
15.721000,0.0065,0.0114,-0.0468,0.049
15.728000,-0.0134,0.0102,-0.0362,0.040
15.731000,-0.0188,0.0435,-0.0290,0.056
15.737000,-0.0111,0.0064,-0.0432,0.045
15.741000,-0.0129,-0.0019,-0.0275,0.030
15.747000,-0.0252,0.0090,-0.0501,0.057
15.761000,-0.0234,-0.0053,-0.0202,0.031
15.762000,-0.0013,0.0127,0.0024,0.013
15.762000,-0.0007,-0.0028,-0.0025,0.004
15.771000,0.0058,-0.0062,-0.0027,0.009
15.773000,0.0147,-0.0132,-0.0182,0.027
15.777000,-0.0170,-0.0166,-0.0051,0.024
15.794000,0.0098,0.0181,0.0291,0.036
15.795000,-0.0005,0.0121,0.0025,0.012
15.796000,0.0287,0.0346,-0.0107,0.046
15.818000,0.0079,0.0261,0.0130,0.030
15.819000,0.0061,0.0058,0.0057,0.010
15.819000,0.0374,0.0248,0.0152,0.047
15.820000,0.0223,0.0116,0.0010,0.025
15.820000,0.0144,0.0032,-0.0180,0.023
15.821000,0.0363,-0.0181,-0.0130,0.043
15.827000,0.0177,0.0035,-0.0057,0.019
15.832000,0.0479,-0.0238,0.0086,0.054
15.837000,0.0255,-0.0354,0.0024,0.044
15.842000,0.0473,-0.0243,-0.0131,0.055
15.847000,0.0522,-0.0015,-0.0118,0.054
15.853000,0.0536,-0.0572,0.0073,0.079
15.858000,0.0537,-0.0638,0.0535,0.099
15.862000,0.0241,-0.0383,0.0400,0.060
15.878000,0.0306,-0.0450,0.0599,0.081
15.879000,0.0238,-0.0315,0.0296,0.049
15.879000,0.0098,-0.0596,0.0672,0.090
15.904000,0.0078,-0.0365,0.0191,0.042
15.905000,0.0223,0.0055,0.0009,0.023
15.906000,0.0261,0.0139,-0.0136,0.033
15.906000,0.0190,0.0234,0.0063,0.031
15.907000,0.0131,0.0293,-0.0382,0.050
15.907000,0.0593,0.0020,-0.0728,0.094
15.913000,0.0329,0.0081,-0.0658,0.074
15.919000,0.0553,0.0011,-0.0625,0.083
15.923000,0.0610,0.0084,-0.0390,0.073
15.928000,0.0512,0.0252,-0.0215,0.061
15.934000,0.0675,0.0180,-0.0159,0.072
15.938000,0.0801,-0.0045,0.0111,0.081
15.943000,0.0703,-0.0067,0.0512,0.087
15.950000,0.0867,-0.0351,0.0459,0.104
15.953000,0.0899,-0.0299,0.0466,0.106
15.959000,0.0896,-0.0510,0.0404,0.111
15.965000,0.0539,-0.0849,0.0246,0.104
15.969000,0.0708,-0.0628,0.0672,0.116
15.974000,0.0401,-0.0764,0.0228,0.089
15.979000,0.0275,-0.0674,0.0418,0.084
15.998000,0.0269,-0.0360,0.0189,0.049
