time,ax,ay,az,aT
0.005000,-0.0573,0.0355,-0.5562,0.560
0.005000,-0.0772,0.0476,-0.4356,0.445
0.005000,-0.1072,0.0636,-0.2579,0.286
0.006000,-0.1512,0.0422,-0.0947,0.183
0.006000,-0.1756,0.0048,0.0446,0.181
0.006000,-0.1518,0.0108,0.1986,0.250
0.012000,-0.1359,-0.0369,0.3425,0.370
0.015000,-0.1423,-0.0237,0.4954,0.516
0.020000,-0.1450,-0.0026,0.6373,0.654
0.025000,-0.0688,-0.0287,0.8005,0.804
0.036000,-0.0574,0.0130,0.9191,0.921
0.036000,-0.0357,0.0301,0.9394,0.941
0.041000,0.0077,0.0316,0.7895,0.790
0.050000,0.0959,-0.0228,0.5555,0.564
0.052000,0.1781,-0.0904,0.1808,0.269
0.055000,0.2594,-0.1164,-0.2453,0.376
0.076000,0.2999,-0.0920,-0.5583,0.640
0.077000,0.2685,-0.0969,-0.6928,0.749
0.078000,0.2552,-0.0593,-0.7255,0.771
0.079000,0.1901,-0.0882,-0.6373,0.671
0.109000,0.0719,-0.0897,-0.5285,0.541
0.110000,0.0069,-0.0630,-0.3808,0.386
0.111000,-0.0063,-0.0839,-0.2478,0.262
0.112000,0.0058,-0.1215,-0.1926,0.228
0.113000,0.0911,-0.1138,-0.1301,0.195
0.113000,0.1668,-0.1230,-0.0664,0.218
0.115000,0.2093,-0.1887,-0.0348,0.284
0.118000,0.2250,-0.2282,0.0365,0.323
0.121000,0.1441,-0.2510,0.1246,0.315
0.127000,0.1020,-0.2321,0.2963,0.390
0.132000,0.0123,-0.1666,0.3385,0.378
0.137000,-0.0815,-0.1417,0.3875,0.421
0.142000,-0.1859,-0.0617,0.4658,0.505
0.148000,-0.1014,0.0207,0.6272,0.636
0.152000,-0.0359,0.0552,0.5801,0.584
0.157000,-0.0737,0.0452,0.5366,0.543
0.173000,-0.0825,0.0088,0.5552,0.561
0.174000,-0.1197,0.0629,0.5705,0.586
0.175000,-0.1495,0.0366,0.6180,0.637
0.177000,-0.2077,0.0600,0.6454,0.681
0.202000,-0.2172,0.0936,0.6156,0.659
0.203000,-0.1493,0.1043,0.5582,0.587
0.203000,-0.1040,0.0889,0.4493,0.470
0.203000,-0.0461,0.0785,0.4144,0.424
0.204000,0.0030,0.0711,0.4079,0.414
0.207000,-0.0031,0.0844,0.4178,0.426
0.213000,-0.0262,0.0551,0.4907,0.494
0.217000,-0.0028,0.0466,0.5406,0.543
0.223000,0.0267,0.0549,0.6022,0.605
0.227000,0.0458,0.0612,0.5498,0.555
0.233000,0.0274,0.0566,0.5107,0.515
0.238000,0.0474,0.0984,0.4911,0.503
0.242000,0.0638,0.1089,0.5027,0.518
0.247000,0.0709,0.1273,0.5124,0.533
0.253000,0.0121,0.1497,0.5202,0.541
0.258000,-0.0059,0.1595,0.4831,0.509
0.263000,0.0025,0.1700,0.5014,0.529
0.268000,0.0446,0.1875,0.4709,0.509
0.273000,0.0431,0.2194,0.4823,0.532
0.279000,0.0266,0.2155,0.5772,0.617
0.283000,0.0924,0.1810,0.6166,0.649
0.289000,0.1241,0.1014,0.6639,0.683
0.294000,0.1326,0.0761,0.6237,0.642
0.309000,0.1262,0.0966,0.6022,0.623
0.310000,0.1836,0.0951,0.5611,0.598
0.310000,0.2478,0.0512,0.5207,0.579
0.340000,0.2765,0.0033,0.4930,0.565
0.341000,0.2871,-0.0092,0.4327,0.519
0.342000,0.3300,-0.0379,0.4103,0.528
0.343000,0.4070,-0.0841,0.4202,0.591
0.344000,0.4943,-0.1134,0.4312,0.666
0.345000,0.5537,-0.1694,0.4620,0.741
0.346000,0.5953,-0.1940,0.5007,0.802
0.358000,0.6242,-0.2272,0.5000,0.831
0.359000,0.5751,-0.2561,0.5080,0.809
0.360000,0.5533,-0.2594,0.3931,0.727
0.372000,0.5435,-0.2799,0.2881,0.676
0.374000,0.5240,-0.2579,0.2289,0.627
0.375000,0.5023,-0.2410,0.1541,0.578
0.383000,0.4733,-0.1946,0.0627,0.516
0.385000,0.4532,-0.1353,-0.0549,0.476
0.390000,0.4060,-0.1215,-0.1404,0.446
0.395000,0.3761,-0.1146,-0.1809,0.433
0.408000,0.2925,-0.0581,-0.1753,0.346
0.409000,0.2249,-0.0488,-0.1478,0.274
0.410000,0.1346,-0.0076,-0.1583,0.208
0.439000,0.0265,0.0490,-0.1137,0.127
0.440000,-0.0149,0.1333,-0.0394,0.140
0.441000,0.0155,0.1079,0.1087,0.154
0.441000,0.0569,0.0484,0.2335,0.245
0.442000,0.0680,0.0196,0.3587,0.366
0.442000,0.0686,-0.0431,0.3972,0.405
0.453000,0.0917,-0.0962,0.4228,0.443
0.454000,0.0569,-0.1131,0.4772,0.494
0.455000,0.0463,-0.1511,0.5387,0.561
0.461000,0.0450,-0.1838,0.4733,0.510
0.466000,0.0352,-0.1083,0.3590,0.377
0.471000,-0.0053,-0.0514,0.2495,0.255
0.476000,-0.0795,0.0527,0.1951,0.217
0.481000,-0.1176,0.1010,0.1218,0.197
0.486000,-0.1575,0.1350,0.0381,0.211
0.491000,-0.1886,0.1773,-0.0055,0.259
0.497000,-0.1848,0.1699,-0.0361,0.254
0.501000,-0.1539,0.2044,-0.0010,0.256
0.506000,-0.1287,0.1895,-0.0276,0.231
0.510000,-0.0975,0.1714,0.1473,0.246
0.534000,-0.1373,0.1520,0.2525,0.325
0.535000,-0.1450,0.1167,0.2881,0.343
0.536000,-0.1425,0.0703,0.2902,0.331
0.536000,-0.1274,0.0198,0.1943,0.233
0.548000,-0.1391,0.0010,0.1786,0.226
0.548000,-0.1955,0.0371,0.1389,0.243
0.549000,-0.2226,0.1018,0.0976,0.264
0.551000,-0.2159,0.1236,0.0797,0.261
0.556000,-0.2438,0.1278,0.0900,0.290
0.561000,-0.2786,0.1204,0.0793,0.314
0.572000,-0.2630,0.0663,0.0340,0.273
0.573000,-0.2509,0.0098,-0.0099,0.251
0.576000,-0.2702,-0.0034,-0.1364,0.303
0.583000,-0.2950,0.0737,-0.2010,0.364
0.587000,-0.3820,0.0973,0.0044,0.394
0.592000,-0.5146,0.1219,0.1284,0.544
0.597000,-0.5623,0.1390,0.0839,0.585
0.602000,-0.5434,0.1714,-0.0415,0.571
0.607000,-0.5423,0.1655,-0.1141,0.578
0.612000,-0.5620,0.1871,-0.2008,0.625
0.623000,-0.5541,0.2003,-0.3639,0.693
0.623000,-0.4897,0.1776,-0.4921,0.717
0.627000,-0.4724,0.1670,-0.6118,0.791
0.652000,-0.4730,0.1099,-0.7388,0.884
0.653000,-0.4758,0.1407,-0.8373,0.973
0.654000,-0.4243,0.1539,-0.8214,0.937
0.654000,-0.4329,0.1245,-0.6948,0.828
0.654000,-0.4504,0.1061,-0.5711,0.735
0.658000,-0.5157,0.0973,-0.4499,0.691
0.664000,-0.5668,0.1219,-0.3505,0.677
0.668000,-0.5888,0.1763,-0.2332,0.657
0.673000,-0.5893,0.1891,-0.1713,0.642
0.678000,-0.5804,0.1676,-0.0213,0.605
0.683000,-0.6189,0.0891,0.0387,0.626
0.688000,-0.6833,0.1129,0.0719,0.696
0.693000,-0.7215,0.1204,0.0631,0.734
0.698000,-0.6681,0.0816,0.0110,0.673
0.703000,-0.3507,-0.0802,0.1276,0.382
0.708000,0.0155,-0.2262,0.4049,0.464
0.726000,-0.0060,-0.2310,0.6403,0.681
0.728000,-0.3649,-0.1904,0.5855,0.716
0.728000,-0.6493,-0.2135,0.3515,0.769
0.729000,-0.7032,-0.2156,0.0958,0.742
0.760000,-0.6037,-0.2128,-0.1199,0.651
0.761000,-0.4951,-0.1546,-0.2807,0.590
0.761000,-0.3464,-0.0992,-0.4432,0.571
0.762000,-0.1669,-0.1900,-0.4759,0.539
0.763000,-0.0845,-0.1899,-0.4378,0.485
0.763000,-0.1616,-0.1376,-0.3801,0.435
0.764000,-0.3094,-0.1272,-0.2995,0.449
0.769000,-0.4343,-0.0964,-0.2341,0.503
0.775000,-0.5282,-0.0653,-0.2775,0.600
0.779000,-0.5422,-0.0515,-0.3292,0.636
0.784000,-0.5276,-0.1078,-0.3223,0.628
0.790000,-0.5154,-0.1001,-0.2245,0.571
0.795000,-0.3998,-0.1009,-0.0248,0.413
0.799000,-0.2997,-0.1380,0.1110,0.348
0.805000,-0.2989,-0.1929,0.2215,0.419
0.810000,-0.1547,-0.2489,0.3188,0.433
0.815000,0.0084,-0.3243,0.4009,0.516
0.820000,0.1314,-0.3451,0.4896,0.613
0.825000,0.1909,-0.4039,0.6005,0.748
0.831000,0.2517,-0.4312,0.5495,0.742
0.835000,0.3253,-0.4856,0.4707,0.750
0.840000,0.3044,-0.4378,0.3327,0.628
0.845000,0.1604,-0.3888,0.2152,0.472
0.861000,0.0476,-0.3107,0.1622,0.354
0.862000,0.0115,-0.1302,-0.0216,0.132
0.863000,-0.0274,-0.0275,-0.1890,0.193
0.891000,-0.0371,0.0086,-0.3011,0.303
0.893000,0.0019,0.0120,-0.4344,0.435
0.893000,-0.0489,0.0301,-0.4693,0.473
0.894000,-0.0897,0.0136,-0.4511,0.460
0.895000,-0.1492,-0.0561,-0.4928,0.518
0.896000,-0.1388,-0.0632,-0.4090,0.436
0.897000,-0.0967,-0.0179,-0.2829,0.299
0.907000,-0.1521,-0.0024,-0.1608,0.221
0.908000,-0.2056,-0.0063,0.0258,0.207
0.911000,-0.2621,-0.0069,0.4032,0.481
0.921000,-0.2591,-0.0141,0.8477,0.887
0.922000,-0.1958,-0.1042,0.9978,1.022
0.926000,0.1442,-0.1317,0.7020,0.729
0.933000,0.3293,-0.1002,-0.1606,0.380
0.936000,-0.1367,0.0530,-0.6842,0.700
0.941000,-0.7038,0.2786,-0.4358,0.873
0.946000,-1.0513,0.5350,-0.2438,1.205
0.958000,-1.1033,0.7042,-0.4216,1.375
0.959000,-0.8607,0.7406,-0.6877,1.327
0.986000,-0.5830,0.6827,-0.6810,1.127
0.987000,-0.3865,0.5432,-0.4218,0.789
0.988000,-0.2445,0.3192,-0.2004,0.449
0.988000,-0.0563,0.0546,-0.0919,0.121
0.989000,0.1612,-0.1275,-0.0303,0.208
0.989000,0.2717,-0.2417,0.1520,0.394
0.991000,0.2736,-0.2643,0.3246,0.500
0.998000,0.2388,-0.2899,0.3229,0.495
1.001000,0.1474,-0.2907,0.3182,0.455
1.006000,-0.0421,-0.2234,0.4465,0.501
1.012000,-0.2471,-0.0930,0.5360,0.597
1.018000,-0.3583,-0.0466,0.4865,0.606
1.021000,-0.4815,0.0965,0.4307,0.653
1.026000,-0.5420,0.2290,0.3502,0.685
1.032000,-0.4245,0.3572,0.3055,0.633
1.036000,-0.1356,0.4127,0.3399,0.552
1.042000,-0.1605,0.4680,0.6084,0.784
1.057000,-0.3166,0.5160,0.6930,0.920
1.058000,-0.4561,0.4907,0.7101,0.976
1.059000,-0.4297,0.3170,0.5987,0.802
1.061000,-0.2502,0.2599,0.5128,0.627
1.084000,-0.0611,0.2558,0.6699,0.720
1.085000,-0.0258,0.1551,0.9479,0.961
1.085000,-0.0659,-0.0243,0.8462,0.849
1.086000,0.1051,-0.1757,0.3550,0.410
1.087000,0.2527,-0.2005,0.3249,0.458
1.093000,0.4858,-0.2497,0.7301,0.912
1.099000,0.8128,-0.3992,0.8490,1.241
1.103000,0.9915,-0.4447,0.9490,1.443
1.108000,1.0824,-0.4944,0.9467,1.521
1.113000,1.1048,-0.5144,0.7358,1.424
1.118000,0.9407,-0.5287,0.4885,1.185
1.123000,0.8056,-0.4738,0.3884,1.012
1.128000,0.6914,-0.3685,0.2102,0.811
1.133000,0.6877,-0.2597,0.0458,0.737
1.138000,0.5068,-0.1854,-0.1639,0.564
1.143000,0.4186,-0.1271,-0.2583,0.508
1.149000,0.4939,-0.0347,0.0362,0.496
1.153000,0.7673,-0.1038,0.0219,0.775
1.159000,0.9463,-0.2580,-0.0159,0.981
1.166000,0.8769,-0.3124,0.0143,0.931
1.168000,0.6796,-0.2995,0.0528,0.745
1.174000,0.3479,-0.1440,0.1309,0.399
1.179000,-0.0070,0.0928,-0.1577,0.183
1.194000,0.0411,0.5358,-0.0158,0.538
1.195000,0.0524,0.8653,0.1906,0.888
1.196000,-0.0191,0.9053,0.1548,0.919
1.226000,0.0996,1.0416,0.1902,1.063
1.228000,0.2106,1.0800,0.0773,1.103
1.228000,0.0934,0.7311,-0.2278,0.771
1.229000,0.0723,1.0998,0.1320,1.110
1.230000,0.2940,1.6749,0.2501,1.719
1.231000,0.5373,0.8020,-0.1912,0.984
1.232000,0.7856,0.2988,-0.1423,0.853
1.241000,1.1242,0.7283,-0.3421,1.383
1.242000,1.5177,0.5302,-0.3876,1.654
1.245000,1.5808,0.2202,-0.3862,1.642
1.254000,1.4414,0.0659,-0.4898,1.524
1.256000,1.3760,0.0195,-0.5082,1.467
1.260000,1.3268,0.0607,-0.5657,1.444
1.266000,1.2602,0.1690,-0.4184,1.339
1.269000,1.1223,0.2963,-0.4272,1.237
1.275000,1.0053,0.3315,-0.5230,1.181
1.280000,0.9262,0.3733,-0.6331,1.182
1.292000,0.8952,0.3950,-0.6326,1.165
1.293000,0.7825,0.3694,-0.6692,1.094
1.295000,0.6247,0.3785,-0.6384,0.970
1.316000,0.4801,0.4130,-0.6449,0.904
1.317000,0.3018,0.3940,-0.6305,0.802
1.317000,0.1845,0.3722,-0.5901,0.722
1.318000,0.0322,0.3570,-0.6045,0.703
1.320000,-0.1323,0.2833,-0.7248,0.789
1.325000,-0.1461,0.1669,-0.6287,0.667
1.330000,-0.1624,0.0235,-0.5079,0.534
1.336000,-0.2395,-0.1782,-0.5690,0.643
1.341000,-0.3260,-0.3975,-0.7858,0.939
1.346000,-0.4786,-0.4905,-0.7847,1.042
1.351000,-0.5531,-0.5217,-0.6354,0.991
1.356000,-0.6019,-0.5137,-0.6684,1.036
1.361000,-0.5572,-0.5925,-0.8073,1.146
1.367000,-0.4642,-0.7029,-0.7187,1.107
1.371000,-0.3240,-0.8551,-0.4344,1.012
1.376000,-0.1880,-1.1785,-0.1490,1.203
1.383000,-0.1658,-1.5313,-0.1109,1.544
1.388000,-0.2950,-1.7303,-0.1272,1.760
1.391000,-0.3679,-1.7305,-0.0253,1.769
1.396000,-0.4691,-1.5404,0.0231,1.610
1.409000,-0.4755,-1.2750,-0.1898,1.374
1.411000,-0.4000,-1.0515,-0.2695,1.157
1.413000,-0.3143,-0.8640,0.0445,0.920
1.448000,-0.3212,-0.7044,0.0706,0.777
1.449000,-0.3663,-0.5796,-0.2465,0.729
1.450000,-0.5163,-0.4352,-0.3371,0.755
1.450000,-0.7123,-0.3310,-0.8507,1.158
1.451000,-0.7744,-0.2307,-0.8968,1.207
1.451000,-0.6905,-0.1284,-0.6291,0.943
1.452000,-0.6532,-0.0862,-0.5572,0.863
1.452000,-0.7229,-0.0148,-0.4667,0.861
1.457000,-0.6829,0.0173,-0.3667,0.775
1.462000,-0.5503,0.0041,-0.1944,0.584
1.468000,-0.4649,-0.0138,-0.1086,0.478
1.472000,-0.4571,-0.0544,-0.1888,0.498
1.477000,-0.3826,-0.1416,-0.0657,0.413
1.492000,-0.2210,-0.2504,0.1625,0.371
1.493000,-0.1279,-0.3271,0.2565,0.435
1.494000,-0.2024,-0.4016,0.2383,0.509
1.497000,-0.3981,-0.3227,0.3149,0.601
1.518000,-0.4491,-0.3129,0.3563,0.653
1.519000,-0.4326,-0.3410,0.3578,0.657
1.519000,-0.3919,-0.4032,0.3718,0.674
1.519000,-0.3200,-0.4384,0.4700,0.718
1.523000,-0.3066,-0.3487,0.5258,0.701
1.528000,-0.3746,-0.1821,0.5271,0.672
1.534000,-0.4476,-0.0475,0.4566,0.641
1.538000,-0.4229,0.0075,0.3834,0.571
1.543000,-0.4202,0.0594,0.3982,0.582
1.550000,-0.4659,0.1333,0.3637,0.606
1.553000,-0.5803,0.1155,0.2181,0.631
1.558000,-0.6679,0.0780,0.0866,0.678
1.563000,-0.7218,0.0342,0.1770,0.744
1.569000,-0.7198,-0.0340,0.2995,0.780
1.574000,-0.6871,-0.0907,0.2773,0.746
1.579000,-0.6591,-0.1064,0.2236,0.704
1.585000,-0.6935,-0.0606,0.1941,0.723
1.589000,-0.7754,0.0249,0.1581,0.792
1.594000,-0.7070,0.0590,-0.0128,0.710
1.600000,-0.5760,0.0501,-0.0292,0.579
1.604000,-0.6021,0.0088,0.0200,0.603
1.609000,-0.6753,-0.0682,-0.0867,0.684
1.615000,-0.7314,-0.1197,-0.0757,0.745
1.629000,-0.7226,-0.1016,0.0748,0.734
1.630000,-0.7551,-0.0581,0.1997,0.783
1.630000,-0.8034,-0.1037,0.2671,0.853
1.634000,-0.8728,-0.1176,0.2879,0.926
1.639000,-0.9025,-0.1390,0.2287,0.941
1.644000,-0.8723,-0.1479,0.2105,0.909
1.659000,-0.9281,-0.2015,0.0873,0.954
1.661000,-0.9157,-0.2387,0.0740,0.949
1.662000,-0.8411,-0.2764,0.1695,0.901
1.665000,-0.7469,-0.2945,0.2223,0.833
1.672000,-0.5973,-0.3026,0.2768,0.725
1.675000,-0.5039,-0.3796,0.3607,0.727
1.680000,-0.3741,-0.4850,0.4253,0.746
1.685000,-0.3179,-0.5410,0.5566,0.839
1.690000,-0.2772,-0.5644,0.6292,0.890
1.695000,-0.2140,-0.5456,0.6981,0.911
1.712000,-0.2188,-0.5540,0.7286,0.941
1.713000,-0.2541,-0.5728,0.6547,0.906
1.713000,-0.2600,-0.6081,0.5661,0.871
1.715000,-0.3366,-0.6407,0.5448,0.906
1.742000,-0.4010,-0.6597,0.5259,0.934
1.743000,-0.3704,-0.7180,0.5606,0.983
1.743000,-0.2905,-0.7233,0.7737,1.098
1.744000,-0.2727,-0.7262,0.8259,1.133
1.745000,-0.3538,-0.7900,0.6611,1.089
1.745000,-0.4418,-0.8392,0.5278,1.085
1.754000,-0.4503,-0.8271,0.5646,1.098
1.755000,-0.3331,-0.8603,0.6172,1.110
1.761000,-0.3092,-0.8300,0.6935,1.125
1.768000,-0.3540,-0.7040,0.7184,1.066
1.771000,-0.4188,-0.5745,0.6109,0.937
1.775000,-0.4175,-0.5082,0.3780,0.759
1.781000,-0.3614,-0.4443,0.3603,0.677
1.787000,-0.3113,-0.3626,0.4062,0.627
1.791000,-0.3565,-0.2679,0.3841,0.589
1.797000,-0.4072,-0.1819,0.3357,0.558
1.801000,-0.3973,-0.1344,0.2708,0.499
1.806000,-0.2849,-0.1385,0.3195,0.450
1.811000,-0.2087,-0.1238,0.4521,0.513
1.817000,-0.1905,-0.1152,0.5157,0.562
1.822000,-0.1754,-0.1524,0.4457,0.503
1.827000,-0.1612,-0.1740,0.3627,0.433
1.846000,-0.1551,-0.1430,0.3586,0.416
1.848000,-0.1390,-0.0725,0.4666,0.492
1.849000,-0.0760,-0.0106,0.5233,0.529
1.849000,-0.0437,0.0308,0.5670,0.570
1.880000,-0.0049,0.0672,0.6215,0.625
1.882000,0.0490,0.0652,0.6835,0.688
1.883000,0.1234,0.0855,0.7204,0.736
1.884000,0.1445,0.0936,0.6341,0.657
1.885000,0.0984,0.1707,0.6339,0.664
1.886000,0.1490,0.2007,0.7579,0.798
1.886000,0.2792,0.2233,0.8697,0.940
1.888000,0.3012,0.3016,0.9506,1.042
1.893000,0.2142,0.3006,0.7135,0.803
1.898000,0.1391,0.3258,0.3637,0.508
1.902000,0.1755,0.4120,0.4483,0.634
1.908000,0.3920,0.3988,0.7316,0.921
1.914000,0.6255,0.2934,0.7467,1.017
1.918000,0.6293,0.2360,0.4569,0.813
1.923000,0.5259,0.1966,0.2674,0.622
1.928000,0.5132,0.2771,0.2399,0.631
1.934000,0.6432,0.4008,0.5133,0.915
1.938000,0.8028,0.5555,0.8300,1.281
1.943000,0.8681,0.6311,0.9529,1.435
1.948000,0.7969,0.7795,0.8595,1.408
1.962000,0.7047,0.9051,0.7937,1.395
1.964000,0.6805,0.9935,0.8998,1.503
1.964000,0.6624,1.0772,1.0006,1.613
1.968000,0.5423,1.1263,0.9008,1.541
1.973000,0.4297,1.1877,0.9481,1.579
1.978000,0.3865,1.2194,1.0223,1.638
1.995000,0.3382,1.2541,1.1228,1.717
1.996000,0.3105,1.1995,1.1659,1.701
1.997000,0.3015,1.0535,0.9875,1.475
1.998000,0.3087,0.8830,0.8387,1.256
2.008000,0.3189,0.7407,0.6208,1.018
2.009000,0.3569,0.5728,0.5561,0.874
2.014000,0.4430,0.4079,0.5705,0.830
2.020000,0.5121,0.2997,0.5281,0.794
2.024000,0.5154,0.2432,0.4842,0.748
2.029000,0.3700,0.2242,0.3746,0.572
2.034000,0.1634,0.2690,0.3367,0.461
2.039000,-0.0172,0.2425,0.3598,0.434
2.044000,-0.1359,0.2896,0.3162,0.450
2.049000,-0.2550,0.2714,0.3030,0.480
2.066000,-0.4225,0.2289,0.2472,0.540
2.069000,-0.4951,0.1990,0.2483,0.589
2.070000,-0.5321,0.1996,0.2467,0.620
2.073000,-0.5749,0.2234,0.2402,0.662
2.074000,-0.5866,0.1675,0.1574,0.630
2.079000,-0.4712,-0.0291,0.1864,0.508
2.102000,-0.3101,-0.2049,0.1467,0.400
2.103000,-0.2051,-0.3971,0.1931,0.487
2.104000,-0.0895,-0.5113,0.2336,0.569
2.104000,0.0914,-0.5811,0.3316,0.675
2.105000,0.3287,-0.6270,0.3463,0.788
2.110000,0.4496,-0.5976,0.2432,0.786
2.115000,0.4205,-0.4811,0.0787,0.644
2.122000,0.2638,-0.3470,-0.2035,0.481
2.125000,0.1747,-0.2682,-0.4218,0.530
2.130000,0.2778,-0.2708,-0.4033,0.560
2.136000,0.3417,-0.2999,-0.3596,0.580
2.141000,0.3844,-0.3687,-0.3504,0.638
2.145000,0.4408,-0.4902,-0.3816,0.762
2.160000,0.5532,-0.5402,-0.2261,0.806
2.161000,0.7129,-0.6549,-0.0918,0.972
2.161000,0.8067,-0.7470,-0.0095,1.100
2.165000,0.8328,-0.7819,0.1033,1.147
2.185000,0.7753,-0.7977,0.1398,1.121
2.186000,0.7081,-0.7525,0.1755,1.048
2.186000,0.6314,-0.7265,0.2339,0.991
2.187000,0.5885,-0.6957,0.2728,0.951
2.190000,0.5640,-0.5906,0.4117,0.915
2.196000,0.5565,-0.4879,0.5067,0.897
2.201000,0.5333,-0.3706,0.4676,0.800
2.205000,0.5602,-0.2281,0.5419,0.812
2.211000,0.6108,-0.1799,0.6363,0.900
2.216000,0.5934,-0.2138,0.6408,0.899
2.220000,0.6657,-0.2952,0.7359,1.035
2.225000,0.7028,-0.2781,0.7719,1.080
2.229000,0.7156,-0.2117,0.7511,1.059
2.236000,0.6668,-0.1664,0.7271,1.000
2.240000,0.7235,-0.2082,0.6211,0.976
2.246000,0.7704,-0.2627,0.4986,0.955
2.263000,0.7769,-0.2954,0.4349,0.938
2.265000,0.7925,-0.3266,0.3908,0.942
2.265000,0.8470,-0.4019,0.2525,0.971
2.299000,0.8854,-0.4341,0.3363,1.042
2.300000,0.9982,-0.4413,0.4975,1.199
2.301000,1.0467,-0.4978,0.5903,1.301
2.302000,0.9508,-0.5270,0.4091,1.161
2.302000,0.7641,-0.4177,0.2673,0.911
2.303000,0.5776,-0.2467,0.1909,0.657
2.304000,0.4312,-0.1002,0.0283,0.444
2.305000,0.3142,-0.0162,0.0032,0.315
2.307000,0.2762,0.0255,0.1013,0.295
2.312000,0.2886,-0.0024,0.0945,0.304
2.319000,0.2895,-0.0340,0.0867,0.304
2.323000,0.2254,-0.0201,0.0333,0.229
2.327000,0.1715,-0.0338,-0.0395,0.179
2.332000,0.0517,-0.0115,-0.1064,0.119
2.338000,-0.0898,0.0144,-0.1354,0.163
2.342000,-0.1612,0.0009,-0.1471,0.218
2.346000,-0.2217,-0.0747,-0.2889,0.372
2.352000,-0.2958,-0.2541,-0.7148,0.814
2.357000,-0.3241,-0.3158,-0.7332,0.862
2.362000,-0.2103,-0.4094,-0.6059,0.761
2.380000,-0.1168,-0.4976,-0.5556,0.755
2.381000,-0.2600,-0.4968,-0.5518,0.787
2.381000,-0.3821,-0.5209,-0.6197,0.895
2.412000,-0.4248,-0.5293,-0.5366,0.865
2.413000,-0.4700,-0.6215,-0.5646,0.962
2.414000,-0.4201,-0.7782,-0.5327,1.032
2.414000,-0.3019,-0.8751,-0.5319,1.068
2.415000,-0.2213,-0.9218,-0.4580,1.053
2.416000,-0.3819,-0.9567,-0.6232,1.204
2.416000,-0.5423,-0.9894,-0.8047,1.386
2.419000,-0.5545,-1.0658,-0.9253,1.516
2.425000,-0.3716,-1.2095,-0.9837,1.603
2.428000,-0.2147,-1.2244,-0.8699,1.517
2.438000,-0.1501,-1.1033,-0.6326,1.281
2.439000,0.1951,-0.2324,-0.4235,0.521
2.443000,0.8495,2.3065,-1.0806,2.685
2.448000,1.0494,4.0057,-2.7763,4.985
2.455000,0.7237,2.5336,-3.3830,4.288
2.459000,1.0334,2.0362,-1.6623,2.824
2.463000,1.4068,1.8378,-0.7706,2.439
2.478000,1.3223,0.9106,-0.9387,1.860
2.479000,0.9270,-0.5218,-1.2384,1.633
2.480000,0.5308,-1.9236,-0.7234,2.123
2.483000,0.1237,-3.0855,0.1305,3.091
2.503000,-0.2172,-3.3060,0.4460,3.343
2.506000,-0.6577,-3.1584,0.6445,3.290
2.507000,-0.8598,-3.2626,0.8394,3.477
2.508000,-0.8490,-2.8487,0.7877,3.075
2.511000,-0.7769,-2.1753,0.4661,2.356
2.514000,-0.7385,-1.6511,0.1191,1.813
2.519000,-0.6467,-1.2316,-0.0809,1.393
2.524000,-0.4691,-0.9494,-0.1224,1.066
2.529000,-0.0741,-0.7904,0.0262,0.794
2.535000,0.1917,-0.7524,0.0585,0.779
2.539000,0.3440,-0.7257,-0.0417,0.804
2.544000,0.5626,-0.6914,-0.1115,0.898
2.549000,0.7894,-0.6329,-0.1807,1.028
2.554000,0.9372,-0.5624,-0.2180,1.115
2.560000,1.0609,-0.4309,-0.1993,1.162
2.565000,1.1455,-0.3367,-0.1394,1.202
2.571000,1.2111,-0.1494,-0.1611,1.231
2.575000,1.2291,0.0316,-0.3013,1.266
2.580000,1.2406,0.1767,-0.4426,1.329
2.599000,1.2494,0.4687,-0.4462,1.407
2.600000,1.2723,0.6769,-0.3444,1.482
2.602000,1.2878,0.7977,-0.4331,1.576
2.602000,1.3045,0.9499,-0.5539,1.706
2.636000,1.2750,1.1205,-0.5598,1.787
2.638000,1.1852,1.2366,-0.5566,1.801
2.639000,1.1177,1.3008,-0.6113,1.821
2.641000,1.0559,1.3335,-0.7651,1.865
2.642000,0.9856,1.3339,-0.8919,1.883
2.642000,0.8169,1.3616,-0.9323,1.841
2.643000,0.6445,1.4216,-1.0444,1.878
2.644000,0.6102,1.4503,-1.0631,1.899
2.646000,0.6810,1.5267,-0.7551,1.834
2.651000,0.7352,1.5015,-0.6407,1.790
2.656000,0.6716,1.4240,-0.7628,1.749
2.661000,0.5324,1.4462,-0.7889,1.731
2.666000,0.4220,1.4686,-0.6602,1.665
2.672000,0.2985,1.3863,-0.6736,1.570
2.676000,0.0984,1.2446,-0.8543,1.513
2.682000,0.0277,1.1418,-0.7249,1.353
2.686000,-0.0122,0.9669,-0.5462,1.111
2.692000,-0.0544,0.8095,-0.5315,0.970
2.697000,-0.0388,0.6495,-0.4687,0.802
2.715000,-0.0472,0.4594,-0.4104,0.618
2.716000,-0.0873,0.3827,-0.3989,0.560
2.717000,-0.1900,0.3979,-0.3556,0.566
2.718000,-0.2772,0.3945,-0.3122,0.574
2.755000,-0.4318,0.3380,-0.3081,0.629
2.756000,-0.5551,0.2256,-0.4170,0.730
2.757000,-0.6486,-0.0143,-0.4483,0.789
2.758000,-0.6742,-0.3375,-0.4641,0.885
2.759000,-0.5363,-0.6100,-0.2888,0.862
2.759000,-0.5689,-0.8139,-0.1689,1.007
2.760000,-0.6608,-0.9805,-0.2054,1.200
2.761000,-0.7069,-1.0837,-0.2522,1.318
2.762000,-0.7063,-1.1092,-0.2554,1.340
2.768000,-0.7536,-1.1243,-0.2150,1.370
2.773000,-0.7870,-1.1289,-0.1597,1.385
2.778000,-0.8129,-1.0598,-0.1300,1.342
2.783000,-0.8568,-1.0810,-0.0833,1.382
2.789000,-0.8806,-1.1708,-0.2840,1.492
2.792000,-0.8115,-1.3183,-0.3735,1.592
2.798000,-0.5715,-1.4767,-0.1932,1.595
2.803000,-0.4068,-1.5597,0.0316,1.612
2.808000,-0.4429,-1.5852,-0.0498,1.647
2.813000,-0.5284,-1.5847,-0.1516,1.677
2.835000,-0.4891,-1.5258,-0.0901,1.605
2.838000,-0.4181,-1.4662,0.0911,1.527
2.839000,-0.3420,-1.3952,0.0854,1.439
2.840000,-0.1991,-1.3380,0.1725,1.364
2.842000,-0.1132,-1.2407,0.2045,1.263
2.846000,-0.0374,-1.1821,0.2219,1.203
2.874000,0.0559,-1.1096,0.2991,1.151
2.875000,0.1619,-1.0184,0.3929,1.103
2.876000,0.1726,-0.9671,0.4910,1.098
2.876000,0.0880,-0.9881,0.4817,1.103
2.877000,0.0676,-1.0586,0.5509,1.195
2.878000,0.1113,-1.2048,0.4578,1.294
2.879000,0.1389,-1.1491,0.3671,1.214
2.884000,0.1875,-0.9541,0.2538,1.005
2.894000,0.3098,-0.8135,0.0829,0.874
2.895000,0.3705,-0.6069,0.0314,0.712
2.899000,0.4252,-0.5266,0.1203,0.687
2.908000,0.4793,-0.4900,0.1159,0.695
2.909000,0.4756,-0.4622,0.0459,0.665
2.914000,0.4836,-0.4612,-0.1303,0.681
2.919000,0.5253,-0.4425,-0.2755,0.740
2.924000,0.6267,-0.3689,-0.2901,0.783
2.929000,0.7152,-0.2297,-0.4005,0.851
2.945000,0.7305,0.0663,-0.5563,0.921
2.946000,0.7148,0.4078,-0.6702,1.061
2.947000,0.9013,0.5392,-0.6005,1.210
2.949000,0.9074,0.8064,-0.6087,1.358
2.973000,0.7428,1.1828,-0.6414,1.537
2.974000,0.5979,1.5608,-0.7193,1.820
2.975000,0.4495,1.7919,-0.8521,2.034
2.976000,0.4648,1.8954,-0.8887,2.144
2.976000,0.5765,1.7782,-0.8643,2.059
2.980000,0.8256,1.4858,-0.7283,1.849
2.986000,0.9761,1.2591,-0.5997,1.702
2.990000,0.9523,1.1622,-0.4994,1.583
2.995000,0.9045,1.1338,-0.4012,1.505
3.000000,0.6827,1.1091,-0.3084,1.338
3.005000,0.4774,1.0391,-0.2638,1.174
3.010000,0.3027,1.0468,-0.0555,1.091
3.015000,0.1762,1.1824,0.2266,1.217
3.020000,-0.0553,1.3453,0.2151,1.364
3.025000,-0.3617,1.4576,0.0139,1.502
3.030000,-0.6010,1.2658,-0.0422,1.402
3.050000,-0.6686,1.0873,0.1316,1.283
3.052000,-0.6973,0.8372,0.3017,1.131
3.053000,-0.7339,0.4667,0.0492,0.871
3.054000,-0.6938,0.1136,-0.0734,0.707
3.092000,-0.5130,-0.1362,0.1896,0.564
3.094000,-0.4482,-0.2780,0.3140,0.614
3.094000,-0.3891,-0.3695,0.3277,0.629
3.095000,-0.2184,-0.4957,0.3646,0.653
3.096000,-0.0783,-0.6579,0.4737,0.815
3.096000,0.1128,-0.8790,0.4769,1.006
3.097000,0.3537,-1.2031,0.5558,1.372
3.098000,0.4974,-1.4734,0.8031,1.750
3.099000,0.5792,-1.6596,1.0735,2.060
3.101000,0.4618,-1.6747,1.1037,2.058
3.109000,0.1921,-1.5294,1.0476,1.864
3.112000,0.0150,-1.1833,0.9498,1.517
3.117000,-0.0325,-0.6212,1.0901,1.255
3.124000,-0.1339,-0.0190,0.9201,0.930
3.126000,-0.3258,0.5191,0.7326,0.955
3.131000,-0.3416,0.9550,0.6055,1.181
3.137000,-0.2024,1.3307,0.4805,1.429
3.141000,-0.0250,1.8042,0.4296,1.855
3.147000,-0.1189,2.1603,0.3563,2.193
3.152000,-0.1801,2.3165,0.2735,2.340
3.169000,-0.1369,2.1810,0.3950,2.221
3.170000,-0.1348,1.8818,0.3572,1.920
3.172000,-0.1672,1.5055,0.0490,1.516
3.174000,-0.1535,1.1417,0.0856,1.155
3.177000,-0.0447,0.8131,0.1980,0.838
3.182000,-0.0253,0.7626,0.2687,0.809
3.208000,-0.1320,0.8213,0.2549,0.870
3.210000,-0.2204,0.9425,0.0390,0.969
3.210000,-0.1494,1.1383,0.0330,1.149
3.211000,0.0132,1.2209,0.2411,1.245
3.212000,0.0599,1.0519,0.3040,1.097
3.213000,-0.1082,0.6948,0.0959,0.710
3.219000,-0.2824,0.3344,-0.0767,0.444
3.223000,-0.3465,-0.0114,-0.2419,0.423
3.228000,-0.2226,-0.1115,0.3524,0.431
3.233000,-0.2605,-0.0679,0.5877,0.646
3.239000,-0.5904,0.0055,0.2275,0.633
3.242000,-0.7742,0.0128,-0.3065,0.833
3.248000,-0.6866,-0.1871,-0.2593,0.757
3.254000,-0.6247,-0.2837,-0.1958,0.714
3.258000,-0.4731,-0.4254,-0.0355,0.637
3.263000,-0.1921,-0.6850,-0.1680,0.731
3.268000,-0.0666,-1.1594,-0.2776,1.194
3.285000,0.0280,-1.3781,-0.1410,1.386
3.286000,0.1959,-1.4011,-0.1119,1.419
3.287000,0.2360,-1.4010,-0.0707,1.422
3.289000,0.2361,-1.2691,-0.0842,1.294
3.292000,0.2807,-1.0704,-0.0315,1.107
3.297000,0.1423,-0.8541,-0.5292,1.015
3.318000,0.3856,-0.6430,0.9515,1.211
3.319000,0.6692,-0.3059,0.6275,0.967
3.320000,0.4609,-0.1644,-1.6166,1.689
3.320000,0.3896,-1.1883,-1.1889,1.725
3.322000,0.9904,-1.3268,1.3670,2.147
3.328000,2.2088,-1.7761,3.2268,4.295
3.333000,1.7975,-2.0559,-0.3871,2.758
3.338000,1.1160,-1.9243,-1.0455,2.458
3.343000,1.1633,-1.8178,-0.1209,2.162
3.348000,1.2600,-1.8962,0.2163,2.287
3.364000,1.0056,-2.0432,-0.0202,2.277
3.366000,0.8447,-2.2176,-0.1678,2.379
3.367000,0.9158,-2.3714,0.0276,2.542
3.368000,0.9616,-2.7159,0.0209,2.881
3.388000,0.9469,-2.7950,-0.0180,2.951
3.390000,0.8846,-2.4903,-0.1078,2.645
3.392000,0.7325,-1.4865,-0.1297,1.662
3.392000,0.1453,-0.6234,-0.7027,0.951
3.395000,-0.6124,0.0835,-0.9931,1.170
3.399000,-1.0140,0.6282,-1.1077,1.628
3.404000,-0.9252,0.8696,-1.5567,2.009
3.409000,-0.6344,0.7078,-1.5313,1.802
3.414000,-0.2846,0.6853,-1.5320,1.702
3.419000,0.0372,0.9120,-1.8331,2.048
3.424000,0.3281,1.0321,-1.9453,2.226
3.429000,0.5353,1.1794,-1.5781,2.042
3.434000,0.6043,1.3565,-1.3237,1.989
3.439000,0.5362,1.7809,-1.5228,2.404
3.444000,0.3708,1.8753,-1.7256,2.575
3.450000,0.2314,1.6820,-1.4761,2.250
3.456000,-0.0024,1.3705,-1.1919,1.816
3.460000,-0.3061,1.2642,-1.2647,1.814
3.464000,-0.6416,1.2478,-1.2741,1.895
3.490000,-0.7536,1.2269,-1.1161,1.822
3.492000,-0.6501,1.0757,-0.9588,1.581
3.493000,-0.3712,0.8784,-0.7740,1.228
3.494000,-0.0629,0.7415,-0.7831,1.080
3.499000,0.1467,0.6100,-0.7123,0.949
3.500000,0.0280,0.3832,-0.3940,0.550
3.502000,-0.1573,0.0927,-0.1453,0.233
3.531000,-0.3368,-0.1145,-0.1780,0.398
3.532000,-0.3933,-0.1308,-0.1039,0.427
3.533000,-0.3437,-0.1370,0.0618,0.375
3.535000,-0.3006,-0.2299,0.3000,0.483
3.535000,-0.3009,-0.2158,0.6273,0.728
3.536000,-0.5062,-0.0949,0.6595,0.837
3.536000,-0.6429,-0.0705,0.4623,0.795
3.544000,-0.5694,-0.0256,0.4918,0.753
3.545000,-0.2119,-0.0045,0.9320,0.956
3.551000,0.0781,-0.1038,1.3068,1.313
3.557000,0.2156,-0.2027,1.6444,1.671
3.560000,0.3319,-0.3181,1.5593,1.626
3.566000,0.5443,-0.3673,1.4518,1.593
3.571000,0.8926,-0.2428,1.5916,1.841
3.576000,1.3278,-0.0142,1.9253,2.339
3.581000,1.6713,0.0925,1.9823,2.594
3.603000,1.7555,0.1479,1.7611,2.491
3.608000,1.7079,0.1602,1.9300,2.582
3.609000,1.4707,0.1474,1.9719,2.464
3.611000,1.2737,0.1261,1.5584,2.017
3.612000,1.3080,0.2481,1.4979,2.004
3.613000,1.4086,0.5050,1.7304,2.288
3.616000,1.3007,0.6872,1.8225,2.342
3.648000,0.9712,0.9618,1.7089,2.188
3.650000,0.8062,1.1502,1.5238,2.072
3.651000,0.7600,1.0631,1.1757,1.758
3.652000,0.7760,0.8862,1.0460,1.575
3.652000,0.6279,0.6374,0.7782,1.186
3.653000,0.6513,0.3408,0.9062,1.167
3.653000,0.8113,0.0742,1.0658,1.342
3.661000,0.9897,-0.1371,1.0962,1.483
3.662000,0.8861,-0.3218,0.7960,1.234
3.667000,0.6208,-0.5622,0.3042,0.891
3.673000,0.3694,-0.6258,0.1661,0.745
3.678000,0.1959,-0.6033,0.0778,0.639
3.682000,-0.0088,-0.6893,0.2067,0.720
3.688000,-0.0343,-0.7282,0.1964,0.755
3.693000,-0.1215,-0.6695,0.0372,0.681
3.698000,-0.1070,-0.6616,0.1266,0.682
3.703000,-0.1989,-0.5213,0.3083,0.638
3.715000,-0.2770,-0.4425,0.4816,0.710
3.716000,-0.3940,-0.2937,0.5101,0.708
3.719000,-0.5329,-0.0284,0.4015,0.668
3.745000,-0.5853,0.2051,0.1779,0.645
3.746000,-0.6900,0.4678,-0.1960,0.856
3.747000,-0.7380,0.6667,-0.3726,1.062
3.748000,-0.7287,0.6452,-0.7424,1.224
3.748000,-0.6103,0.4469,-1.2450,1.457
3.749000,-0.5274,0.3902,-1.1603,1.333
3.758000,-0.6458,0.4126,-1.3741,1.573
3.759000,-0.7828,0.0861,-1.7327,1.903
3.763000,-0.9750,-0.0879,-1.6727,1.938
3.768000,-1.1032,-0.1682,-1.4268,1.811
3.773000,-1.1495,-0.2652,-1.3521,1.794
3.778000,-1.2018,-0.2251,-1.1258,1.662
3.783000,-1.1631,0.0568,-1.0503,1.568
3.788000,-1.0547,0.4355,-1.1571,1.625
3.794000,-0.7978,0.6442,-1.4151,1.748
3.798000,-0.5076,0.7251,-1.6245,1.850
3.805000,-0.5204,0.1553,-1.5110,1.606
3.809000,-0.7352,-0.1516,-1.2716,1.477
3.814000,-0.6416,0.1229,-1.5057,1.641
3.819000,-0.5916,0.6868,-1.4983,1.751
3.836000,-0.3802,1.0429,-1.2523,1.673
3.838000,-0.5594,1.4466,-2.0761,2.592
3.839000,0.6632,1.5408,5.5041,5.754
3.843000,1.9279,1.6244,1.6178,2.995
3.844000,1.2275,1.9205,0.1149,2.282
3.849000,1.3988,2.4956,-0.5570,2.915
3.873000,1.8010,2.1055,-2.5388,3.758
3.876000,1.3531,1.2697,-3.2029,3.702
3.877000,0.8547,0.6335,-0.7260,1.288
3.877000,0.7462,-0.0117,-0.6299,0.977
3.878000,0.3004,-0.9258,-0.6106,1.149
3.880000,0.0014,-1.7150,-0.1250,1.720
3.885000,0.0621,-1.7558,0.0293,1.757
3.890000,-0.0803,-1.4431,-0.3432,1.486
3.896000,-0.2791,-1.1444,-0.5780,1.312
3.900000,-0.2811,-0.9483,-0.2710,1.026
3.918000,-0.1826,-0.7713,0.2933,0.845
3.919000,0.0208,-1.0134,-0.0261,1.014
3.920000,-0.1211,-0.6720,-0.2572,0.730
3.921000,-0.3282,0.1805,-0.2053,0.427
3.950000,-0.3281,0.4202,-0.4802,0.718
3.951000,-0.3287,0.0684,-0.8510,0.915
3.952000,-0.3313,-0.1688,-0.7350,0.824
3.952000,-0.3337,-0.3570,-0.3872,0.624
3.953000,-0.4509,-0.4833,-0.3123,0.731
3.954000,-0.7433,-0.5569,-0.4700,1.041
3.964000,-0.9270,-0.5384,-0.5255,1.194
3.965000,-0.9099,-0.8390,-0.5305,1.347
3.966000,-0.9916,-0.8667,-0.0786,1.319
3.975000,-1.1188,-0.6976,0.4974,1.409
3.976000,-1.1541,-0.6400,0.6773,1.483
3.981000,-1.1894,-0.3237,0.5504,1.350
3.986000,-1.1240,-0.1477,0.5237,1.249
3.991000,-0.9352,-0.1397,0.4684,1.055
3.996000,-0.6016,0.2127,0.7166,0.960
4.001000,-0.3369,0.5375,0.5424,0.835
4.006000,-0.1837,0.7143,0.2657,0.784
4.012000,-0.0633,0.7696,0.1800,0.793
4.016000,0.0849,0.7193,0.1944,0.750
4.032000,0.2255,0.5245,0.1674,0.595
4.033000,0.3439,0.2559,0.1924,0.470
4.033000,0.2963,0.1125,0.2340,0.394
4.036000,0.2507,0.1558,0.3546,0.461
4.067000,0.1561,0.1472,0.6640,0.698
4.068000,0.1653,-0.0186,0.7490,0.767
4.068000,0.1990,-0.0868,0.6669,0.701
4.069000,0.2676,0.2211,0.7489,0.825
4.070000,0.3643,0.6408,1.0915,1.317
4.070000,0.2109,0.6615,1.3254,1.496
4.080000,0.2571,0.1479,0.7407,0.798
4.081000,0.5346,-0.0665,0.8291,0.989
4.082000,0.2543,-0.2400,1.0559,1.112
4.089000,0.2505,-0.6446,0.9475,1.173
4.093000,0.0233,-1.0178,1.0400,1.455
4.098000,-0.0117,-1.3829,1.2351,1.854
4.103000,-0.0653,-1.1633,0.8673,1.453
4.108000,-0.2206,-0.7437,0.7624,1.088
4.113000,-0.1643,-0.4539,0.4822,0.682
4.118000,-0.1206,-0.3472,0.4964,0.618
4.134000,-0.1134,-0.2989,0.0805,0.330
4.135000,-0.3022,-0.3341,0.5610,0.719
4.136000,-0.6211,-0.4001,0.0841,0.744
4.165000,-0.5796,-0.7888,0.4867,1.093
4.165000,-0.7929,-1.0290,0.1186,1.304
4.166000,-0.5505,-1.1940,0.3631,1.364
4.168000,-0.2912,-1.3613,0.0220,1.392
4.168000,-0.0494,-1.4431,0.1484,1.452
4.169000,-0.0999,-1.3078,0.3877,1.368
4.170000,-0.3076,-1.1390,0.2407,1.204
4.176000,-0.5345,-1.0889,0.2381,1.236
4.178000,-0.5936,-1.0417,0.2895,1.233
4.183000,-0.3884,-0.9356,0.3016,1.057
4.190000,-0.1104,-0.8927,0.2890,0.945
4.193000,-0.0001,-1.0313,0.1179,1.038
4.198000,0.3182,-1.3035,0.2197,1.360
4.203000,0.6166,-1.5639,0.0463,1.682
4.208000,0.7767,-1.6250,0.0063,1.801
4.213000,0.8512,-1.5369,0.0812,1.759
4.219000,0.8681,-1.3972,0.1264,1.650
4.225000,0.8449,-1.1317,-0.0300,1.413
4.229000,0.8119,-0.7890,-0.1260,1.139
4.234000,0.8530,-0.3619,0.0850,0.930
4.254000,0.8415,-0.0373,0.1985,0.865
4.255000,0.9225,0.0381,0.0629,0.925
4.256000,0.9790,-0.0340,-0.0671,0.982
4.257000,1.2077,-0.1369,-0.0075,1.215
4.261000,1.3098,-0.0327,-0.0241,1.310
4.264000,1.2702,0.0001,-0.2586,1.296
4.269000,1.2433,-0.1700,-0.4042,1.318
4.294000,1.3013,0.0730,-0.2954,1.336
4.295000,1.1989,0.4731,-0.2439,1.312
4.296000,0.9448,0.9395,-0.1851,1.345
4.296000,0.5651,1.3695,-0.4753,1.556
4.297000,0.2120,1.4153,-0.8625,1.671
4.300000,0.2135,1.1503,-0.7146,1.371
4.308000,0.6655,0.7363,-0.2197,1.017
4.310000,1.1829,0.1771,-0.0760,1.199
4.315000,1.5037,-0.1840,0.1177,1.519
4.320000,1.5446,-0.3957,-0.1507,1.602
4.325000,1.3903,-0.1299,-0.3901,1.450
4.329000,1.1382,0.1082,0.3625,1.199
4.335000,0.5308,0.2731,0.5768,0.830
4.340000,-0.0458,0.5498,0.1476,0.571
4.344000,-0.2637,0.7615,0.0957,0.812
4.350000,-0.5333,0.9099,-0.3234,1.103
4.371000,-0.5580,1.1325,-0.4124,1.328
4.373000,-0.4955,0.8867,-0.4283,1.102
4.373000,-0.1594,0.0442,-0.3157,0.356
4.376000,-0.2960,-0.9631,-0.0637,1.010
4.381000,-0.8318,-1.8660,-0.0760,2.044
4.383000,-1.6099,-1.8768,-0.1874,2.480
4.386000,-2.1327,-1.2159,-0.3486,2.480
4.410000,-2.4736,-0.3128,-0.5683,2.557
4.412000,-2.6632,0.4114,-0.6787,2.779
4.414000,-2.7994,0.8163,-1.0074,3.085
4.415000,-2.6818,0.9232,-1.0513,3.025
4.416000,-2.1249,0.8447,-0.7854,2.418
4.417000,-1.4679,0.5867,-0.5150,1.663
4.421000,-1.0436,0.3348,-0.2168,1.117
4.432000,-0.7884,0.0591,-0.3743,0.875
4.434000,-0.3352,-0.2785,-0.6112,0.751
4.435000,0.2973,-0.4878,-0.4057,0.701
4.445000,0.6660,-0.5893,-0.2028,0.912
4.446000,0.7633,-0.5916,-0.3022,1.012
4.451000,0.7258,-0.8585,-0.1364,1.132
4.457000,0.8826,-1.5656,0.5452,1.878
4.461000,1.3597,-2.2235,0.8954,2.756
4.466000,1.1312,-1.5760,0.6985,2.062
4.471000,0.1933,-0.6862,1.6638,1.810
4.485000,-0.2922,-1.4153,0.8120,1.658
4.486000,-0.4681,-1.4843,0.4614,1.623
4.487000,-0.8710,-1.8589,0.2882,2.073
4.518000,-0.7481,-2.0474,0.6646,2.279
4.521000,-0.7996,-2.3239,0.1119,2.460
4.522000,-1.0347,-2.6258,-0.1367,2.826
4.524000,-1.1973,-3.1381,-0.1822,3.364
4.525000,-1.0607,-3.3949,0.0203,3.557
4.527000,-1.0433,-3.2807,-0.1241,3.445
4.528000,-1.2581,-3.0795,-0.4071,3.351
4.529000,-1.3913,-2.8213,-0.2275,3.154
4.533000,-1.2199,-2.7754,-0.0159,3.032
4.537000,-1.1280,-2.5135,0.5945,2.818
4.546000,-1.1151,-2.2392,0.7887,2.623
4.547000,-0.9612,-2.1416,0.8110,2.484
4.552000,-0.7106,-2.1785,0.8560,2.446
4.558000,-0.2645,-2.3306,0.9479,2.530
4.562000,0.2004,-2.4288,1.2090,2.720
4.568000,0.5574,-2.3118,1.3704,2.745
4.586000,0.7436,-2.1471,1.3275,2.632
4.588000,0.8716,-1.8774,1.1068,2.347
4.589000,0.9393,-2.0744,0.9405,2.464
4.590000,1.4932,-2.1038,1.0726,2.794
4.626000,3.9332,0.4061,1.0508,4.091
4.628000,4.4191,4.0285,1.3633,6.133
4.630000,3.0969,5.3093,1.3546,6.294
4.632000,1.8776,4.9003,1.7576,5.534
4.633000,0.5043,4.5361,1.2609,4.735
4.634000,-1.1909,4.5856,0.1751,4.741
4.635000,-2.2998,4.5466,-0.8419,5.164
4.636000,-2.0348,4.0071,-1.5846,4.765
4.638000,-0.5186,2.9874,-2.0390,3.654
4.640000,1.4865,2.0113,-1.8196,3.093
4.644000,2.4124,1.3681,-1.7661,3.288
4.649000,2.4838,1.2533,-2.2387,3.571
4.654000,2.2892,1.2624,-2.8266,3.850
4.660000,1.9594,0.8908,-3.0677,3.747
4.664000,1.5878,0.6711,-2.7959,3.285
4.669000,1.3046,0.1796,-2.4509,2.782
4.683000,0.9772,-0.4388,-2.3643,2.596
4.685000,0.8059,-1.3014,-2.5133,2.943
4.686000,0.6942,-2.0746,-2.5852,3.387
4.689000,0.6365,-2.5803,-2.4411,3.609
4.712000,0.7237,-2.9983,-2.1967,3.787
4.714000,0.6673,-3.3108,-1.8419,3.847
4.715000,0.4285,-3.4068,-1.5434,3.765
4.716000,0.0615,-3.3118,-1.2096,3.526
4.717000,-0.2601,-3.2973,-1.3697,3.580
4.719000,-0.4218,-3.6511,-1.3827,3.927
4.724000,-0.5343,-3.6125,-1.1258,3.821
4.729000,-1.0214,-2.7948,-0.6799,3.052
4.734000,-1.6400,-2.0130,-0.3771,2.624
4.741000,-2.1418,-0.9510,-0.2089,2.353
4.744000,-2.5043,0.0502,0.2636,2.519
4.749000,-2.7509,0.9009,0.5692,2.950
4.755000,-2.7491,1.6729,0.9351,3.351
4.759000,-2.5387,2.1203,1.3344,3.567
4.765000,-2.0173,2.2900,1.7108,3.499
4.770000,-1.1709,2.2422,2.0003,3.225
4.775000,-0.6843,2.2628,2.5430,3.472
4.780000,-0.0279,2.3051,3.2995,4.025
4.785000,1.2888,2.0126,3.2035,3.997
4.803000,1.8170,1.7316,2.7300,3.708
4.804000,1.6717,1.6033,2.5703,3.460
4.806000,1.3367,1.7313,2.2998,3.174
4.837000,0.9867,2.0890,1.9876,3.048
4.838000,0.6609,2.2588,1.6727,2.887
4.840000,0.6176,2.1209,1.3500,2.589
4.841000,0.6104,1.7115,0.7936,1.983
4.842000,0.6654,1.2652,0.3910,1.482
4.842000,0.6847,0.7353,0.1357,1.014
4.843000,0.5233,0.2260,-0.0878,0.577
4.843000,0.4266,-0.3000,-0.3308,0.618
4.845000,0.3408,-0.7161,-0.4899,0.932
4.851000,0.1864,-1.3081,-0.7778,1.533
4.856000,0.0136,-1.7950,-1.2856,2.208
4.861000,-0.2368,-1.9835,-1.6520,2.592
4.866000,-0.3539,-1.8897,-1.8031,2.636
4.871000,-0.4184,-1.5359,-1.7772,2.386
4.875000,-0.5453,-1.1817,-1.5115,1.995
4.881000,-0.4334,-0.7745,-1.3876,1.647
4.886000,-0.3559,-0.1611,-1.3906,1.444
4.903000,-0.3835,0.6454,-1.7042,1.862
4.904000,-0.5632,1.3149,-1.5774,2.129
4.905000,-0.5388,1.9391,-1.1417,2.314
4.934000,-0.4570,2.2169,-0.5209,2.323
4.936000,-0.3437,1.7116,0.1839,1.755
4.937000,0.2533,1.0162,0.3355,1.100
4.937000,0.8214,1.2610,0.8736,1.740
4.938000,0.8587,1.9683,1.4055,2.567
4.939000,0.6444,2.4840,2.2818,3.434
4.940000,0.6636,2.2310,2.1022,3.136
4.944000,0.4076,1.8772,1.8980,2.700
4.948000,0.7994,1.0864,1.9349,2.359
4.952000,1.3785,0.2544,1.7807,2.266
4.960000,1.7765,-0.2770,2.0799,2.749
4.963000,2.0334,-0.4248,2.3141,3.110
4.967000,3.1995,-1.2345,2.8906,4.485
4.972000,2.6765,-1.6397,2.6232,4.091
4.977000,1.5891,-1.1905,1.0893,2.265
4.982000,0.8666,-0.5684,-1.3298,1.686
4.987000,-0.3189,0.5796,-1.6308,1.760
4.993000,-1.1212,1.9132,-1.7983,2.855
4.998000,-1.4987,2.4684,-3.4765,4.519
5.003000,-2.2788,2.9562,-4.6306,5.948
5.022000,-2.8418,3.2882,-4.0097,5.913
5.025000,-2.8818,3.5222,-2.7838,5.335
5.027000,-3.0277,3.1984,-1.8365,4.772
5.029000,-3.1847,2.7121,-0.6377,4.231
5.030000,-2.9737,2.1190,0.0328,3.652
5.033000,-3.2477,1.3811,-0.7362,3.605
5.038000,-3.4511,1.1323,1.4420,3.908
5.064000,-2.4682,1.7753,1.5550,3.415
5.066000,-1.8956,2.2678,1.6169,3.369
5.068000,-1.2624,2.0310,1.6941,2.931
5.070000,-0.5271,0.0540,1.4476,1.542
5.071000,0.1166,-1.7049,1.0796,2.021
5.072000,0.7701,-2.2336,1.2557,2.676
5.080000,1.7365,-2.6709,1.4467,3.499
5.081000,3.6382,-4.5007,2.8548,6.453
5.084000,3.3079,-4.0664,2.2508,5.705
5.089000,1.1004,-1.3302,-0.4476,1.783
5.094000,0.3246,0.7700,-2.9226,3.040
5.100000,1.6463,1.0658,-3.4381,3.958
5.104000,2.3326,0.9702,-1.8846,3.152
5.109000,2.2927,0.8249,0.3000,2.455
5.114000,2.3484,0.8933,1.7544,3.064
5.119000,2.5305,1.1347,2.0773,3.465
5.139000,2.5618,1.2763,1.3005,3.144
5.141000,2.4774,1.4123,0.3522,2.873
5.142000,2.3476,1.5546,-0.3550,2.838
5.143000,2.4205,1.5165,-0.6403,2.927
5.144000,2.5767,1.4178,-0.6367,3.009
5.152000,2.4488,1.4558,-0.7736,2.952
5.154000,2.2328,1.5203,-0.2283,2.711
5.179000,1.4863,1.5135,0.0265,2.121
5.180000,0.1524,1.6662,-0.0770,1.675
5.181000,-1.5877,1.7786,-0.0614,2.385
5.182000,-2.7826,1.3627,-0.1313,3.101
5.183000,-3.2684,0.6165,-0.4903,3.362
5.184000,-3.2559,-0.4397,-0.9084,3.409
5.189000,-3.0182,-1.5201,-1.2496,3.603
5.195000,-2.6400,-2.3105,-1.5191,3.823
5.200000,-2.3484,-2.7647,-1.6173,3.972
5.205000,-1.9783,-3.0005,-1.6849,3.969
5.209000,-1.7109,-2.9956,-1.6817,3.838
5.214000,-1.5538,-2.7336,-1.4312,3.455
5.219000,-1.4094,-2.3058,-1.2778,2.989
5.225000,-1.4160,-1.8724,-1.0313,2.564
5.229000,-1.4328,-1.5005,-0.8113,2.228
5.235000,-1.4720,-1.1372,-0.5640,1.944
5.240000,-1.5080,-0.7763,-0.2960,1.722
5.255000,-1.4949,-0.4941,-0.0889,1.577
5.257000,-1.4202,-0.2868,0.1662,1.458
5.257000,-1.3583,-0.1061,0.2398,1.383
5.289000,-1.2674,0.0242,0.2767,1.297
5.291000,-1.0795,0.0936,0.4558,1.176
5.291000,-0.9212,0.2086,0.5756,1.106
5.292000,-0.7966,0.2522,0.5738,1.014
5.293000,-0.6758,0.2855,0.5443,0.913
5.294000,-0.5278,0.2917,0.3400,0.692
5.295000,-0.3800,0.3474,0.2610,0.577
5.295000,-0.2085,0.3903,0.3456,0.561
5.301000,-0.0165,0.3929,0.3015,0.496
5.306000,0.1833,0.2787,0.1706,0.375
5.312000,0.2828,0.1733,0.0603,0.337
5.316000,0.3794,0.1770,0.0168,0.419
5.321000,0.5058,0.2179,-0.0149,0.551
5.325000,0.6569,0.1728,-0.0846,0.685
5.331000,0.8114,0.0478,-0.0917,0.818
5.336000,0.8637,-0.0017,-0.1867,0.884
5.356000,0.9929,-0.0596,-0.2094,1.016
5.358000,1.1649,-0.1113,-0.1793,1.184
5.359000,1.2197,-0.1428,-0.2374,1.251
5.359000,1.1717,-0.1396,-0.2308,1.202
5.362000,1.1916,-0.1461,-0.1977,1.217
5.367000,1.2209,-0.2125,-0.2292,1.260
5.371000,1.2191,-0.2718,-0.2621,1.276
5.396000,1.1624,-0.2606,-0.2309,1.213
5.398000,1.0690,-0.2389,-0.2616,1.126
5.398000,0.8244,-0.1183,-0.2168,0.861
5.399000,0.5801,0.0150,-0.2188,0.620
5.399000,0.2888,0.0799,-0.2413,0.385
5.402000,-0.0095,0.1433,-0.2208,0.263
5.407000,-0.2224,0.1923,-0.2384,0.379
5.413000,-0.3685,0.2807,-0.2377,0.521
5.417000,-0.4877,0.3284,-0.2090,0.624
5.422000,-0.5745,0.3404,-0.1851,0.693
5.428000,-0.6207,0.3321,-0.1890,0.729
5.432000,-0.5646,0.2894,-0.1591,0.654
5.437000,-0.4706,0.2338,-0.1276,0.541
5.455000,-0.3580,0.1701,-0.0404,0.398
5.455000,-0.2001,0.1222,0.0043,0.234
5.456000,-0.0899,0.0578,0.0164,0.108
5.486000,0.0718,0.0068,0.1640,0.179
5.487000,0.2365,-0.0631,0.2906,0.380
5.487000,0.3600,-0.1436,0.3700,0.536
5.488000,0.4824,-0.1977,0.4094,0.663
5.488000,0.5588,-0.2181,0.4918,0.776
5.489000,0.5687,-0.1787,0.5704,0.825
5.489000,0.6417,-0.1406,0.6133,0.899
5.497000,0.7007,-0.0796,0.5886,0.919
5.498000,0.7122,0.0351,0.4857,0.863
5.503000,0.7262,0.1270,0.4337,0.855
5.507000,0.7569,0.1854,0.3752,0.865
5.513000,0.7705,0.2391,0.2024,0.832
5.518000,0.8150,0.2461,0.0382,0.852
5.523000,0.8401,0.2209,-0.1049,0.875
5.528000,0.8797,0.1957,-0.1138,0.908
5.533000,0.9288,0.0916,-0.0716,0.936
5.538000,0.9866,-0.0853,-0.0550,0.992
5.543000,0.9841,-0.2537,-0.0571,1.018
5.549000,0.9608,-0.3801,-0.0790,1.036
5.554000,1.0077,-0.4957,-0.0911,1.127
5.574000,0.9633,-0.6591,-0.0575,1.169
5.575000,0.9126,-0.7339,-0.1410,1.180
5.576000,0.8446,-0.7453,-0.1774,1.140
5.576000,0.7940,-0.7519,-0.1812,1.108
5.581000,0.7260,-0.6821,-0.1558,1.008
5.586000,0.6667,-0.5466,-0.1330,0.872
5.589000,0.5417,-0.4016,-0.0700,0.678
5.617000,0.4261,-0.2616,-0.0165,0.500
5.618000,0.3341,-0.0918,0.0578,0.351
5.619000,0.2248,0.1101,0.0802,0.263
5.620000,0.1234,0.2748,0.1325,0.329
5.621000,0.0238,0.4012,0.2090,0.453
5.621000,-0.0451,0.5143,0.2766,0.586
5.630000,-0.1226,0.6321,0.3257,0.722
5.631000,-0.1881,0.7354,0.3410,0.832
5.635000,-0.2045,0.8184,0.3500,0.913
5.640000,-0.1607,0.7685,0.3969,0.880
5.644000,-0.1101,0.6325,0.3835,0.748
5.650000,-0.1625,0.5923,0.2464,0.662
5.655000,-0.2795,0.6489,0.0654,0.710
5.674000,-0.3609,0.6325,-0.0133,0.728
5.678000,-0.4453,0.6029,-0.1350,0.762
5.679000,-0.4926,0.4860,-0.2407,0.733
5.680000,-0.5138,0.3478,-0.2772,0.680
5.681000,-0.5290,0.2312,-0.2914,0.647
5.685000,-0.5289,0.1184,-0.2651,0.603
5.690000,-0.5305,0.0105,-0.1781,0.560
5.713000,-0.4753,-0.1151,-0.1447,0.510
5.715000,-0.4277,-0.1498,-0.1005,0.464
5.715000,-0.4093,-0.1401,-0.0211,0.433
5.716000,-0.4079,-0.1555,0.0256,0.437
5.717000,-0.3710,-0.1027,0.0540,0.389
5.721000,-0.3606,-0.0823,0.1229,0.390
5.728000,-0.3801,-0.0774,0.1355,0.411
5.730000,-0.3699,-0.0378,0.1770,0.412
5.736000,-0.3873,-0.0581,0.2248,0.452
5.741000,-0.4000,-0.0412,0.2266,0.462
5.746000,-0.3563,-0.0662,0.1729,0.402
5.751000,-0.3089,-0.1163,0.0733,0.338
5.756000,-0.2793,-0.1377,-0.0270,0.313
5.761000,-0.3042,-0.1638,-0.0734,0.353
5.766000,-0.3395,-0.1505,-0.0388,0.373
5.772000,-0.3160,-0.0810,0.0002,0.326
5.791000,-0.2925,-0.0954,0.0124,0.308
5.792000,-0.2675,-0.0702,0.0434,0.280
5.793000,-0.1919,-0.0559,0.0270,0.202
5.795000,-0.1555,-0.0525,0.0326,0.167
5.797000,-0.1197,-0.0575,0.1067,0.170
5.802000,-0.0596,-0.0624,0.1405,0.165
5.806000,0.0018,-0.0722,0.1666,0.182
5.832000,0.0647,-0.0557,0.1863,0.205
5.833000,0.1262,-0.0871,0.2489,0.292
5.834000,0.1614,-0.1148,0.2876,0.349
5.835000,0.2168,-0.1508,0.2605,0.371
5.835000,0.2660,-0.1916,0.2779,0.430
5.837000,0.3233,-0.1533,0.2251,0.423
5.843000,0.3755,-0.1402,0.1788,0.439
5.847000,0.4033,-0.1379,0.1471,0.451
5.852000,0.4690,-0.1534,0.0774,0.500
5.857000,0.4867,-0.1306,0.0737,0.509
5.863000,0.5242,-0.1461,0.0390,0.546
5.867000,0.5364,-0.1198,0.0034,0.550
5.872000,0.5581,-0.1006,0.0323,0.568
5.895000,0.5747,-0.1017,0.0603,0.587
5.896000,0.5997,-0.1005,0.1087,0.618
5.897000,0.5361,-0.0920,0.1617,0.567
5.898000,0.4784,-0.0704,0.1608,0.510
5.902000,0.4518,-0.0429,0.1861,0.490
5.903000,0.3916,-0.0488,0.2639,0.475
5.907000,0.3194,-0.0141,0.3330,0.462
5.940000,0.2757,0.0230,0.3543,0.449
5.941000,0.2077,0.1079,0.3731,0.440
5.942000,0.1648,0.1831,0.4145,0.482
5.942000,0.1394,0.2177,0.4799,0.545
5.943000,0.1161,0.2618,0.4796,0.559
5.944000,0.1150,0.2759,0.4378,0.530
5.944000,0.1506,0.3320,0.4618,0.588
5.948000,0.1823,0.3653,0.4718,0.624
5.953000,0.2244,0.3292,0.4557,0.605
5.959000,0.2601,0.3064,0.4613,0.612
5.963000,0.3437,0.3254,0.4610,0.661
5.969000,0.4463,0.2942,0.4645,0.708
5.973000,0.5023,0.2678,0.4358,0.717
5.978000,0.5634,0.1756,0.4657,0.752
5.983000,0.6079,0.1505,0.4992,0.801
5.989000,0.6826,0.0907,0.5579,0.886
5.994000,0.6944,0.0238,0.6299,0.938
5.999000,0.7328,-0.0658,0.6628,0.990
6.004000,0.7667,-0.1170,0.7188,1.057
6.009000,0.8344,-0.1754,0.7240,1.119
6.022000,0.8722,-0.2361,0.7522,1.176
6.023000,0.9005,-0.2286,0.7724,1.208
6.024000,0.9025,-0.2211,0.8446,1.256
6.053000,0.9188,-0.1921,0.9308,1.322
6.055000,0.8942,-0.1357,0.9319,1.299
6.055000,0.8956,-0.0291,0.9435,1.301
6.056000,0.9003,0.0822,0.9558,1.316
6.056000,0.8652,0.2365,0.9569,1.312
6.057000,0.8336,0.3247,0.9466,1.302
6.066000,0.8194,0.3735,0.8734,1.255
6.068000,0.7844,0.4414,0.7921,1.199
6.069000,0.7276,0.4410,0.7351,1.124
6.075000,0.6682,0.4443,0.6651,1.042
6.080000,0.6312,0.4237,0.5811,0.957
6.085000,0.5316,0.4116,0.5007,0.838
6.090000,0.4257,0.3636,0.4597,0.724
6.097000,0.3649,0.3038,0.4128,0.629
6.100000,0.2904,0.2525,0.3348,0.510
6.105000,0.2589,0.1870,0.2878,0.430
6.120000,0.1976,0.1251,0.3411,0.414
6.121000,0.1604,0.0346,0.3787,0.413
6.122000,0.1032,-0.0199,0.4460,0.458
6.124000,0.0667,-0.0709,0.5123,0.521
6.150000,-0.0234,-0.0906,0.5231,0.531
6.151000,-0.1001,-0.0697,0.4654,0.481
6.152000,-0.1064,-0.0608,0.4340,0.451
6.152000,-0.1534,-0.0877,0.3273,0.372
6.153000,-0.1303,-0.0714,0.2766,0.314
6.155000,-0.1149,-0.0217,0.2040,0.235
6.161000,-0.1070,-0.0461,0.1692,0.205
6.165000,0.0152,-0.1146,0.2051,0.235
6.170000,0.0879,-0.1902,0.1791,0.276
6.176000,0.1689,-0.3134,0.2846,0.456
6.180000,0.2521,-0.3684,0.2881,0.531
6.185000,0.3235,-0.4185,0.3405,0.629
6.191000,0.3722,-0.4673,0.3066,0.671
6.195000,0.3907,-0.5232,0.3660,0.749
6.201000,0.4342,-0.5204,0.3882,0.781
6.205000,0.4595,-0.5211,0.4030,0.803
6.222000,0.4274,-0.4800,0.3917,0.753
6.223000,0.4222,-0.3899,0.3433,0.669
6.223000,0.4356,-0.2914,0.2626,0.586
6.226000,0.4510,-0.1941,0.2716,0.561
6.257000,0.4432,-0.1292,0.2494,0.525
6.258000,0.4736,-0.0691,0.2321,0.532
6.259000,0.4704,-0.0067,0.2038,0.513
6.259000,0.4265,0.0473,0.1698,0.461
6.260000,0.3996,0.0486,0.1425,0.427
6.260000,0.3993,0.0308,0.1722,0.436
6.262000,0.3863,-0.0062,0.1490,0.414
6.266000,0.3714,-0.0288,0.1719,0.410
6.272000,0.3404,-0.0431,0.1774,0.386
6.278000,0.3292,-0.0467,0.1629,0.370
6.282000,0.2625,-0.0576,0.1489,0.307
6.287000,0.2968,-0.0793,0.1750,0.354
6.292000,0.3461,-0.0927,0.1322,0.382
6.297000,0.2548,-0.0619,0.1354,0.295
6.302000,0.2766,-0.0707,0.0806,0.297
6.307000,0.2569,-0.0258,0.0672,0.267
6.313000,0.2650,-0.0610,0.0417,0.275
6.317000,0.2983,-0.0939,-0.0523,0.317
6.322000,0.2909,-0.0753,-0.1311,0.328
6.339000,0.3268,-0.0711,-0.2040,0.392
6.340000,0.3112,-0.0334,-0.2090,0.376
6.340000,0.3902,-0.0688,-0.2548,0.471
6.342000,0.4189,-0.1017,-0.2050,0.477
6.370000,0.3949,-0.1465,-0.1876,0.461
6.371000,0.4034,-0.1530,-0.1916,0.472
6.371000,0.4058,-0.1463,-0.1871,0.470
6.372000,0.3773,-0.1313,-0.1575,0.429
6.372000,0.3658,-0.1534,-0.1530,0.425
6.373000,0.3652,-0.1660,-0.1113,0.416
6.378000,0.3085,-0.1593,-0.1280,0.370
6.383000,0.2939,-0.1420,-0.1387,0.355
6.388000,0.2137,-0.1808,-0.1650,0.325
6.393000,0.1862,-0.1503,-0.1867,0.303
6.398000,0.1695,-0.1569,-0.1665,0.285
6.403000,0.1302,-0.1516,-0.1430,0.246
6.408000,0.0504,-0.1115,-0.1780,0.216
6.412000,0.0257,-0.0716,-0.1667,0.183
6.418000,-0.0180,-0.0568,-0.2059,0.214
6.423000,-0.0196,-0.0684,-0.1975,0.210
6.440000,-0.0354,-0.0286,-0.1786,0.184
6.441000,-0.0725,-0.0176,-0.2042,0.217
6.442000,-0.0842,-0.0269,-0.1988,0.218
6.444000,-0.1114,-0.0435,-0.1815,0.217
6.482000,-0.1238,-0.0469,-0.1991,0.239
6.482000,-0.1075,-0.0443,-0.2239,0.252
6.483000,-0.0980,-0.0334,-0.1891,0.216
6.483000,-0.0918,-0.0286,-0.1855,0.209
6.484000,-0.0628,-0.0274,-0.1832,0.196
6.485000,-0.0994,-0.0680,-0.1569,0.198
6.485000,-0.0938,0.0073,-0.1401,0.169
6.485000,-0.0870,-0.0071,-0.1279,0.155
6.489000,-0.0850,-0.0441,-0.1883,0.211
6.495000,-0.0709,-0.0465,-0.1841,0.203
6.499000,-0.0723,-0.0346,-0.1739,0.191
6.504000,-0.0714,-0.0692,-0.1718,0.199
6.509000,-0.0288,-0.0775,-0.1771,0.195
6.515000,-0.0558,-0.1085,-0.1788,0.216
6.519000,-0.0383,-0.1053,-0.1543,0.191
6.524000,-0.0115,-0.1164,-0.1038,0.156
6.531000,0.0232,-0.1451,-0.0677,0.162
6.534000,0.0706,-0.1154,-0.1053,0.171
6.540000,0.0917,-0.1263,-0.0974,0.184
6.558000,0.1160,-0.1146,-0.1430,0.217
6.559000,0.1282,-0.1386,-0.1540,0.244
6.562000,0.1393,-0.0828,-0.1364,0.212
6.563000,0.1433,-0.0692,-0.1228,0.201
6.564000,0.1118,-0.1173,-0.1179,0.200
6.595000,0.1175,-0.0927,-0.1276,0.197
6.597000,0.1326,-0.0161,-0.1458,0.198
6.598000,0.1796,-0.0055,-0.1892,0.261
6.601000,0.1911,-0.0294,-0.1628,0.253
6.602000,0.1754,-0.0413,-0.1492,0.234
6.603000,0.1933,-0.0437,-0.1552,0.252
6.603000,0.1922,-0.0996,-0.1321,0.254
6.615000,0.1772,-0.0802,-0.1633,0.254
6.616000,0.1638,-0.0884,-0.1081,0.215
6.616000,0.1081,-0.0729,-0.0656,0.146
6.620000,0.0683,-0.0682,-0.0561,0.112
6.625000,0.0778,-0.0671,-0.0590,0.118
6.631000,0.0671,-0.0982,-0.0410,0.126
6.635000,0.0388,-0.0898,0.0038,0.098
6.640000,0.0191,-0.0922,0.0326,0.100
6.650000,0.0315,-0.0637,0.0671,0.098
6.651000,0.0225,-0.0615,0.0407,0.077
6.655000,-0.0068,-0.0784,0.0618,0.100
6.670000,-0.0337,-0.0832,0.0613,0.109
6.671000,-0.1103,-0.0654,0.1132,0.171
6.673000,-0.0940,-0.0584,0.1032,0.151
6.675000,-0.1017,-0.0490,0.0235,0.115
6.702000,-0.0789,-0.0420,0.0098,0.090
6.703000,-0.0933,-0.0374,-0.0277,0.104
6.704000,-0.0876,-0.0210,-0.0994,0.134
6.704000,-0.1128,-0.0130,-0.1434,0.183
6.705000,-0.1167,-0.0063,-0.0780,0.140
6.706000,-0.1705,0.0194,-0.0667,0.184
6.716000,-0.2015,0.0438,-0.0758,0.220
6.717000,-0.1964,0.0762,-0.1144,0.240
6.721000,-0.2603,0.1487,0.0041,0.300
6.727000,-0.2725,0.1506,0.0269,0.313
6.732000,-0.3167,0.1240,-0.0289,0.341
6.737000,-0.4138,0.1308,-0.0662,0.439
6.742000,-0.4627,0.1435,-0.0697,0.489
6.747000,-0.5254,0.1431,-0.0538,0.547
6.752000,-0.5582,0.1402,0.0136,0.576
6.757000,-0.5969,0.1529,0.0204,0.616
6.772000,-0.5971,0.1811,0.0134,0.624
6.773000,-0.6416,0.1674,0.0069,0.663
6.773000,-0.6535,0.2016,-0.0075,0.684
6.804000,-0.6677,0.2776,-0.0801,0.728
6.804000,-0.6685,0.2602,-0.0638,0.720
6.805000,-0.6634,0.2261,-0.1024,0.708
6.805000,-0.6988,0.1968,-0.0606,0.728
6.806000,-0.7185,0.1365,-0.1094,0.739
6.806000,-0.6960,0.0893,-0.1493,0.717
6.807000,-0.7473,0.0805,-0.2162,0.782
6.817000,-0.7827,0.0812,-0.2669,0.831
6.818000,-0.7782,0.1142,-0.3756,0.872
6.823000,-0.7937,0.1304,-0.4632,0.928
6.831000,-0.8161,0.1991,-0.5429,1.000
6.833000,-0.8288,0.2870,-0.5776,1.050
6.837000,-0.8152,0.3484,-0.6356,1.091
6.843000,-0.7983,0.4038,-0.6366,1.098
6.848000,-0.7890,0.4999,-0.6092,1.115
6.855000,-0.6930,0.5171,-0.5882,1.046
6.858000,-0.6107,0.5104,-0.6178,1.008
6.864000,-0.4918,0.5027,-0.6215,0.939
6.868000,-0.3996,0.4507,-0.6370,0.877
6.873000,-0.3015,0.3940,-0.6392,0.809
6.880000,-0.2418,0.3398,-0.6607,0.781
6.884000,-0.1962,0.2724,-0.6289,0.713
6.890000,-0.2365,0.1860,-0.6038,0.675
6.893000,-0.2491,0.1068,-0.6203,0.677
6.907000,-0.2998,0.0515,-0.5251,0.607
6.908000,-0.3683,0.0214,-0.5131,0.632
6.951000,-0.3696,-0.0350,-0.4729,0.601
6.952000,-0.3864,-0.1129,-0.4679,0.617
6.953000,-0.3981,-0.1465,-0.4798,0.640
6.953000,-0.4382,-0.1729,-0.4406,0.645
6.954000,-0.5269,-0.2101,-0.3703,0.677
6.954000,-0.5625,-0.1695,-0.3611,0.690
6.955000,-0.5535,-0.2259,-0.3638,0.700
6.955000,-0.5706,-0.2894,-0.3856,0.747
6.955000,-0.5980,-0.2811,-0.4205,0.783
6.957000,-0.6144,-0.2692,-0.4539,0.810
6.958000,-0.6344,-0.3148,-0.4227,0.825
6.966000,-0.6540,-0.3029,-0.3616,0.806
6.973000,-0.6770,-0.2313,-0.3553,0.799
6.975000,-0.6630,-0.2016,-0.3572,0.780
6.982000,-0.6745,-0.1718,-0.3159,0.764
6.985000,-0.6742,-0.0931,-0.2849,0.738
6.989000,-0.6539,-0.0442,-0.3074,0.724
6.994000,-0.6614,-0.0038,-0.2899,0.722
7.006000,-0.6420,0.0284,-0.2351,0.684
7.007000,-0.6292,0.0761,-0.2446,0.679
7.034000,-0.5703,0.0784,-0.2538,0.629
7.035000,-0.5096,0.0771,-0.2903,0.592
7.036000,-0.4768,0.0509,-0.2838,0.557
7.036000,-0.4287,-0.0101,-0.2761,0.510
7.037000,-0.3821,-0.0553,-0.2422,0.456
7.037000,-0.3654,-0.0611,-0.2526,0.448
7.041000,-0.3645,-0.0489,-0.2514,0.445
7.046000,-0.3482,-0.0535,-0.1977,0.404
7.050000,-0.3619,0.0065,-0.1468,0.391
7.056000,-0.3111,0.0401,-0.0972,0.328
7.061000,-0.3466,0.0833,-0.1017,0.371
7.066000,-0.3789,0.1061,-0.0151,0.394
7.071000,-0.4081,0.1075,-0.0454,0.424
7.076000,-0.3230,0.0898,-0.1363,0.362
7.081000,-0.2742,0.0961,-0.1576,0.331
7.086000,-0.2797,0.1167,-0.1549,0.340
7.091000,-0.2543,0.1350,-0.2002,0.351
7.107000,-0.2097,0.1676,-0.2024,0.336
7.108000,-0.1566,0.2312,-0.2241,0.358
7.108000,-0.1164,0.2528,-0.2544,0.377
7.111000,-0.0770,0.2911,-0.2802,0.411
7.136000,-0.0956,0.2754,-0.3087,0.425
7.136000,-0.1174,0.2741,-0.2978,0.421
7.137000,-0.1185,0.2094,-0.2489,0.346
7.138000,-0.1611,0.1709,-0.2755,0.362
7.138000,-0.1544,0.1206,-0.2170,0.292
7.142000,-0.1322,0.0668,-0.1789,0.232
7.147000,-0.1222,0.0107,-0.1871,0.224
7.152000,-0.0764,-0.0836,-0.1437,0.183
7.157000,0.0095,-0.1633,-0.1249,0.206
7.162000,0.0099,-0.2177,-0.0747,0.230
7.167000,0.0361,-0.2613,-0.0887,0.278
7.172000,0.1384,-0.3322,-0.1277,0.382
7.177000,0.2031,-0.3922,-0.1627,0.471
7.182000,0.2364,-0.4114,-0.1161,0.488
7.187000,0.2597,-0.3517,-0.1160,0.452
7.192000,0.2684,-0.3816,-0.1147,0.480
7.197000,0.2903,-0.3434,-0.1253,0.467
7.202000,0.2819,-0.3279,-0.1351,0.453
7.208000,0.2808,-0.2790,-0.1283,0.416
7.230000,0.2641,-0.2349,-0.1470,0.383
7.232000,0.2391,-0.2328,-0.1041,0.350
7.233000,0.2179,-0.1806,-0.1071,0.303
7.235000,0.1624,-0.1392,-0.1012,0.237
7.236000,0.1369,-0.1254,-0.0398,0.190
7.238000,0.1081,-0.1046,-0.0675,0.165
7.243000,0.0999,-0.1066,-0.0527,0.155
7.283000,0.1051,-0.0751,-0.0004,0.129
7.284000,0.0400,-0.0677,0.0275,0.083
7.285000,0.0242,-0.0376,0.0190,0.049
7.285000,-0.0573,-0.0112,0.0567,0.081
7.286000,-0.0384,-0.0184,0.0522,0.067
7.286000,-0.0170,-0.0064,0.0630,0.066
7.287000,-0.0242,0.0283,0.0880,0.096
7.287000,-0.0696,0.0593,0.0769,0.119
7.289000,-0.0478,0.0532,0.0741,0.103
7.294000,-0.0750,0.0292,0.0712,0.107
7.299000,-0.0949,0.0111,0.0645,0.115
7.304000,-0.1232,-0.0010,0.0684,0.141
7.309000,-0.1455,0.0121,0.0195,0.147
7.327000,-0.1679,-0.0096,0.0304,0.171
7.329000,-0.1484,-0.0025,0.0914,0.174
7.330000,-0.1567,-0.0170,0.1044,0.189
7.330000,-0.1424,-0.0362,0.0982,0.177
7.370000,-0.1439,-0.0470,0.1457,0.210
7.371000,-0.1179,-0.0219,0.1358,0.181
7.372000,-0.0970,-0.0386,0.1880,0.215
7.373000,-0.0797,-0.0745,0.2294,0.254
7.373000,-0.0483,-0.0541,0.1968,0.210
7.374000,-0.0540,-0.0540,0.1790,0.195
7.375000,0.0168,-0.0479,0.2180,0.224
7.375000,0.0273,-0.0617,0.1069,0.126
7.376000,0.0448,-0.0362,0.0477,0.075
7.385000,0.0655,-0.0228,0.0508,0.086
7.386000,0.0881,-0.0285,0.0345,0.099
7.390000,0.0794,-0.0009,0.0705,0.106
7.397000,0.1263,0.0039,0.0881,0.154
7.400000,0.1536,-0.0150,0.0698,0.169
7.406000,0.1844,-0.0552,0.0704,0.205
7.411000,0.2127,-0.0975,0.0861,0.249
7.415000,0.2335,-0.1014,0.1051,0.275
7.421000,0.1924,-0.1183,0.0951,0.245
7.426000,0.1921,-0.1673,0.1526,0.297
7.445000,0.2038,-0.1327,0.1645,0.294
7.446000,0.1738,-0.0913,0.2401,0.310
7.447000,0.1537,-0.0751,0.2465,0.300
7.448000,0.1112,-0.0295,0.2230,0.251
7.451000,0.1082,0.0242,0.2164,0.243
7.456000,0.0589,0.0667,0.2149,0.233
7.461000,0.0347,0.0673,0.1863,0.201
7.491000,0.0343,0.0917,0.1369,0.168
7.492000,0.0196,0.1005,0.1308,0.166
7.493000,0.0181,0.0737,0.1164,0.139
7.493000,0.0261,0.0802,0.1351,0.159
7.494000,0.0103,0.0867,0.1228,0.151
7.495000,-0.0030,0.0564,0.1874,0.196
7.506000,-0.0029,0.0464,0.2001,0.205
7.507000,0.0045,-0.0063,0.1839,0.184
7.507000,0.0095,-0.0194,0.2009,0.202
7.512000,-0.0306,-0.0418,0.1951,0.202
7.519000,-0.0382,-0.0701,0.2343,0.248
7.522000,-0.0564,-0.0756,0.2185,0.238
7.527000,-0.0519,-0.0489,0.1719,0.186
7.532000,-0.0345,-0.0735,0.1779,0.196
7.537000,-0.0515,-0.0968,0.1626,0.196
7.542000,-0.0661,-0.0616,0.1475,0.173
7.562000,-0.0190,-0.0920,0.1835,0.206
7.563000,-0.0018,-0.1068,0.2061,0.232
7.564000,0.0059,-0.0882,0.1763,0.197
7.565000,0.0478,-0.0733,0.1765,0.197
7.567000,0.0692,-0.1108,0.1349,0.188
7.572000,0.0442,-0.1337,0.1470,0.204
7.577000,0.0644,-0.1101,0.1185,0.174
7.606000,0.1438,-0.1046,0.0996,0.204
7.607000,0.1716,-0.1074,0.1542,0.255
7.608000,0.1743,-0.1007,0.2002,0.284
7.609000,0.1472,-0.1166,0.1923,0.269
7.609000,0.1822,-0.1158,0.1810,0.282
7.610000,0.1849,-0.0770,0.1745,0.266
7.613000,0.1698,-0.0682,0.1668,0.248
7.621000,0.1701,-0.0653,0.1795,0.256
7.622000,0.1561,-0.0554,0.1991,0.259
7.628000,0.1979,-0.0657,0.1617,0.264
7.633000,0.1705,-0.0142,0.1567,0.232
7.638000,0.1823,0.0108,0.1826,0.258
7.643000,0.1798,0.0178,0.1775,0.253
7.649000,0.2009,0.0378,0.1262,0.240
7.653000,0.2111,0.0137,0.1490,0.259
7.658000,0.1845,-0.0161,0.1394,0.232
7.663000,0.2138,0.0268,0.1180,0.246
7.680000,0.2250,0.0704,0.1299,0.269
7.681000,0.1721,0.0699,0.1312,0.227
7.682000,0.2002,0.0515,0.1244,0.241
7.684000,0.1830,0.1009,0.1425,0.253
7.688000,0.1683,0.0966,0.0927,0.215
7.693000,0.1797,0.0875,0.1004,0.224
7.723000,0.1935,0.1022,0.1105,0.245
7.724000,0.1703,0.0800,0.1030,0.214
7.725000,0.1900,0.0759,0.1063,0.231
7.725000,0.1681,0.0646,0.0881,0.200
7.726000,0.1666,0.0689,0.0976,0.205
7.726000,0.1936,0.0791,0.0928,0.229
7.730000,0.1789,0.0678,0.1212,0.227
7.738000,0.1681,0.0696,0.0951,0.205
7.740000,0.1715,0.0929,0.0859,0.213
7.745000,0.1560,0.0874,0.0816,0.197
7.753000,0.1621,0.0701,0.0738,0.191
7.755000,0.1372,0.0233,0.0555,0.150
7.760000,0.1292,0.0315,0.0660,0.148
7.780000,0.1120,0.0764,0.0884,0.162
7.782000,0.1031,0.0390,0.0536,0.123
7.783000,0.0838,0.0577,0.0417,0.110
7.783000,0.1205,0.0561,0.0418,0.139
7.785000,0.1035,0.0532,0.0312,0.121
7.789000,0.0617,0.0778,0.0172,0.101
7.795000,0.0880,0.0724,0.0616,0.130
7.826000,0.0881,0.0612,0.0369,0.113
7.827000,0.0501,0.0678,0.0421,0.094
7.828000,0.0504,0.0744,0.0630,0.110
7.829000,0.0496,0.0560,0.0863,0.114
7.830000,0.0774,0.0141,0.1214,0.145
7.831000,0.0599,-0.0062,0.0971,0.114
7.832000,0.0275,-0.0097,0.0969,0.101
7.836000,0.0416,-0.0677,0.0946,0.124
7.841000,0.0605,-0.1051,0.0605,0.136
7.845000,0.0546,-0.0794,0.0575,0.112
7.852000,0.0311,-0.0443,0.0569,0.079
7.856000,0.0390,-0.0915,0.0362,0.106
7.861000,0.0266,-0.0742,0.0013,0.079
7.883000,0.0557,-0.0487,-0.0014,0.074
7.885000,0.0646,0.0074,0.0173,0.067
7.885000,0.0734,-0.0153,-0.0296,0.081
7.886000,0.0974,0.0061,-0.0002,0.098
7.887000,0.1508,0.0321,0.0219,0.156
7.892000,0.1433,0.0567,-0.0277,0.157
7.895000,0.1369,0.0562,-0.0945,0.176
7.925000,0.1661,0.0533,-0.0350,0.178
7.926000,0.1690,0.0670,-0.0365,0.185
7.926000,0.1481,0.0771,-0.0214,0.168
7.927000,0.1298,0.0597,-0.0207,0.144
7.927000,0.0915,0.0473,-0.0331,0.108
7.928000,0.0939,0.0575,-0.0536,0.122
7.944000,0.0866,0.0416,-0.0131,0.097
7.946000,0.0842,-0.0134,0.0048,0.085
7.946000,0.0500,-0.0252,-0.0153,0.058
7.948000,0.0364,-0.0263,-0.0387,0.059
7.959000,0.0350,-0.0380,0.0367,0.063
7.959000,0.0479,-0.0509,0.0595,0.092
7.961000,0.0634,-0.0660,0.0524,0.105
7.969000,0.0491,-0.0656,0.0869,0.119
7.971000,0.0541,-0.0961,0.0678,0.129
7.977000,0.0439,-0.0634,0.0408,0.087
7.993000,0.0279,-0.0167,-0.0186,0.037
7.993000,0.0286,0.0023,-0.0809,0.086
7.994000,0.0103,0.0175,-0.1036,0.106
7.997000,0.0218,0.0232,-0.1405,0.144
8.022000,0.0484,0.0620,-0.1788,0.195
8.023000,0.0581,0.0614,-0.1648,0.185
8.024000,0.1213,0.0725,-0.1371,0.197
8.024000,0.1106,0.0207,-0.1158,0.161
8.024000,0.0800,-0.0178,-0.1177,0.143
8.027000,0.0962,-0.0191,-0.0655,0.118
8.034000,0.0636,-0.0502,-0.1028,0.131
8.037000,0.0744,-0.0965,-0.0643,0.138
8.042000,0.0365,-0.0985,-0.0253,0.108
8.047000,-0.0437,-0.0589,0.0430,0.085
8.052000,-0.0081,-0.0470,0.0394,0.062
8.058000,0.0037,-0.0257,0.0052,0.026
8.063000,-0.0548,0.0132,0.0294,0.064
8.068000,-0.0512,0.0377,0.0406,0.075
8.073000,-0.0573,0.0844,-0.0156,0.103
8.078000,-0.0458,0.0490,-0.0140,0.068
8.093000,-0.0203,0.0435,-0.0715,0.086
8.094000,-0.0105,0.0559,-0.0853,0.103
8.095000,0.0097,0.0113,-0.1096,0.111
8.123000,0.0285,-0.0223,-0.1265,0.132
8.124000,0.0092,-0.0271,-0.1302,0.133
8.125000,0.0043,-0.0936,-0.1184,0.151
8.125000,-0.0041,-0.1037,-0.0916,0.138
8.125000,-0.0184,-0.1007,-0.0309,0.107
8.126000,-0.0528,-0.0847,-0.0182,0.101
8.129000,-0.0633,-0.0807,-0.0187,0.104
8.133000,-0.0903,-0.0708,0.0116,0.115
8.139000,-0.0993,-0.0586,-0.0128,0.116
8.143000,-0.1012,-0.0155,0.0155,0.104
8.150000,-0.1221,0.0022,-0.0013,0.122
8.154000,-0.1049,0.0127,-0.0248,0.109
8.159000,-0.0867,0.0338,-0.0516,0.106
8.164000,-0.0877,0.0286,-0.0912,0.130
8.169000,-0.0815,0.0068,-0.1079,0.135
8.174000,-0.0694,0.0030,-0.1115,0.131
8.179000,-0.0586,0.0135,-0.0950,0.112
8.184000,-0.0299,-0.0165,-0.1086,0.114
8.190000,-0.0144,0.0119,-0.1426,0.144
8.194000,-0.0157,-0.0004,-0.1326,0.134
8.216000,0.0010,0.0089,-0.1084,0.109
8.217000,-0.0014,0.0085,-0.0858,0.086
8.218000,-0.0132,-0.0168,-0.0490,0.053
8.219000,-0.0248,-0.0062,0.0028,0.026
8.220000,-0.0256,-0.0065,-0.0584,0.064
8.224000,-0.0371,0.0420,-0.0360,0.067
8.229000,-0.0602,0.0389,0.0077,0.072
8.261000,-0.0595,0.0122,-0.0523,0.080
8.262000,-0.0421,-0.0155,-0.0194,0.049
8.263000,-0.0532,-0.0026,-0.0257,0.059
8.264000,-0.0809,0.0006,-0.0202,0.083
8.265000,-0.0728,-0.0294,-0.0386,0.087
8.265000,-0.0802,-0.0093,-0.0735,0.109
8.266000,-0.0946,-0.0463,-0.1045,0.148
8.277000,-0.0757,-0.0379,-0.0832,0.119
8.278000,-0.1127,-0.0415,-0.0679,0.138
8.280000,-0.0937,-0.0225,-0.0788,0.125
8.291000,-0.0997,0.0071,-0.0507,0.112
8.292000,-0.1069,0.0055,-0.0451,0.116
8.296000,-0.0867,0.0147,-0.0311,0.093
8.302000,-0.0631,0.0107,-0.0338,0.072
8.306000,-0.0637,0.0186,-0.0446,0.080
8.311000,-0.0536,0.0135,-0.0350,0.065
8.327000,-0.0223,-0.0166,-0.0609,0.067
8.328000,-0.0126,-0.0131,-0.0225,0.029
8.328000,-0.0126,-0.0239,-0.0212,0.034
8.330000,-0.0020,-0.0156,-0.0210,0.026
8.356000,-0.0127,-0.0715,0.0138,0.074
8.357000,-0.0044,-0.0771,-0.0848,0.115
8.358000,-0.0081,-0.0541,-0.0948,0.109
8.358000,-0.0535,-0.0633,-0.0526,0.098
8.358000,-0.0640,-0.0440,-0.0569,0.096
8.361000,-0.0840,-0.0344,-0.0519,0.105
8.368000,-0.0884,-0.0438,-0.0717,0.122
8.371000,-0.1215,-0.0032,-0.0831,0.147
8.376000,-0.1186,-0.0081,-0.0790,0.143
8.381000,-0.1015,-0.0011,-0.1021,0.144
8.386000,-0.1119,0.0118,-0.0823,0.139
8.391000,-0.1057,-0.0194,-0.0627,0.124
8.396000,-0.0888,-0.0051,-0.0528,0.103
8.401000,-0.1017,-0.0278,-0.0548,0.119
8.406000,-0.1015,-0.0740,-0.0724,0.145
8.411000,-0.1238,-0.0368,-0.0639,0.144
8.427000,-0.0998,-0.0675,-0.0639,0.136
8.428000,-0.0914,-0.0624,-0.1065,0.154
8.429000,-0.0652,-0.0893,-0.0967,0.147
8.432000,-0.0797,-0.0686,-0.0954,0.142
8.457000,-0.0869,-0.0480,-0.1154,0.152
8.458000,-0.0871,-0.0561,-0.1175,0.157
8.458000,-0.0742,-0.0641,-0.0864,0.131
8.459000,-0.0698,-0.0602,-0.0972,0.134
8.459000,-0.0690,-0.0337,-0.0663,0.101
8.462000,-0.0517,-0.0122,-0.0499,0.073
8.469000,-0.0178,-0.0289,-0.0705,0.078
8.472000,-0.0163,-0.0335,-0.1179,0.124
8.477000,-0.0089,-0.0488,-0.0725,0.088
8.482000,0.0020,-0.0189,-0.0465,0.050
8.487000,0.0117,-0.0177,-0.0872,0.090
8.493000,0.0226,-0.0224,-0.1096,0.114
8.498000,-0.0047,-0.0010,-0.1260,0.126
8.503000,0.0216,0.0285,-0.1234,0.129
8.508000,-0.0020,0.0340,-0.0949,0.101
8.513000,0.0112,0.0276,-0.1010,0.105
8.531000,0.0492,0.0344,-0.0796,0.100
8.533000,0.0180,0.0173,-0.1036,0.107
8.535000,0.0201,0.0111,-0.1024,0.105
8.536000,0.0115,-0.0021,-0.1153,0.116
8.542000,0.0041,0.0037,-0.1257,0.126
8.543000,0.0169,-0.0356,-0.0860,0.095
8.548000,0.0106,-0.0294,-0.0430,0.053
8.571000,-0.0065,-0.0578,-0.0897,0.107
8.572000,0.0087,-0.0966,-0.0599,0.114
8.573000,0.0072,-0.0769,0.0220,0.080
8.573000,0.0297,-0.0989,0.0237,0.106
8.574000,0.0520,-0.0923,0.0442,0.115
8.578000,0.0373,-0.1011,0.0812,0.135
8.584000,0.0383,-0.1111,0.0479,0.127
8.588000,0.0490,-0.0593,0.0152,0.078
8.594000,0.0323,-0.0470,-0.0881,0.105
8.599000,-0.0212,0.0091,-0.0989,0.102
8.603000,0.0149,0.0219,-0.0977,0.101
8.609000,0.0411,0.0098,-0.1441,0.150
8.614000,0.0718,0.0321,-0.0763,0.110
8.618000,0.0798,0.0163,-0.0994,0.129
8.624000,0.0783,0.0243,-0.0750,0.111
8.629000,0.0805,0.0050,-0.0829,0.116
8.648000,0.0580,-0.0273,-0.0661,0.092
8.650000,0.0631,-0.0570,-0.0865,0.121
8.650000,0.0185,-0.0758,-0.1119,0.136
8.651000,0.0718,-0.0945,-0.1352,0.180
8.655000,0.0488,-0.0940,-0.0624,0.123
8.659000,0.0118,-0.0829,-0.0271,0.088
8.664000,0.0202,-0.0398,-0.0064,0.045
8.696000,-0.0320,0.0266,-0.0250,0.049
8.698000,-0.0411,0.0332,-0.0313,0.061
8.699000,-0.0338,0.0694,-0.0374,0.086
8.699000,0.0174,0.0888,-0.0394,0.099
8.700000,0.0075,0.0830,-0.0768,0.113
8.701000,0.0212,0.0809,-0.1065,0.135
8.702000,0.0288,0.0765,-0.1344,0.157
8.706000,0.0233,0.0994,-0.1749,0.202
8.710000,0.0497,0.0629,-0.1151,0.140
8.715000,0.0676,0.0444,-0.1163,0.142
8.721000,0.0675,0.0463,-0.0818,0.116
8.726000,0.0508,0.0220,-0.0274,0.062
8.731000,0.0321,0.0276,-0.0435,0.061
8.737000,0.0158,0.0118,-0.0344,0.040
8.741000,0.0021,-0.0122,-0.0218,0.025
8.746000,0.0014,0.0138,-0.0437,0.046
8.765000,-0.0182,0.0302,-0.0545,0.065
8.766000,-0.0413,0.0156,-0.0331,0.055
8.767000,-0.0370,0.0178,-0.0639,0.076
8.767000,-0.0540,0.0389,-0.0552,0.086
8.803000,-0.0377,0.0278,-0.1486,0.156
8.804000,-0.0714,0.0441,-0.1652,0.185
8.804000,-0.0183,0.0175,-0.1900,0.192
8.805000,0.0130,-0.0112,-0.1579,0.159
8.806000,0.0048,0.0256,-0.1427,0.145
8.806000,0.0123,0.0478,-0.1313,0.140
8.807000,0.0065,0.0580,-0.1569,0.167
8.807000,-0.0111,0.0361,-0.1111,0.117
8.812000,0.0261,0.0024,-0.0693,0.074
8.818000,0.0227,-0.0369,-0.0148,0.046
8.822000,0.0089,-0.0308,-0.0237,0.040
8.827000,-0.0048,-0.0081,-0.0619,0.063
8.832000,-0.0124,-0.0367,-0.0690,0.079
8.837000,-0.0198,-0.0413,-0.0856,0.097
8.842000,-0.0083,-0.0292,-0.0784,0.084
8.846000,-0.0491,-0.0422,-0.1010,0.120
8.864000,-0.0551,-0.0538,-0.0938,0.121
8.864000,-0.0480,-0.0476,-0.0629,0.092
8.865000,-0.0161,-0.0272,-0.0714,0.078
8.902000,-0.0143,-0.0200,-0.0550,0.060
8.903000,-0.0254,0.0073,-0.0959,0.099
8.904000,-0.0246,-0.0237,-0.0961,0.102
8.904000,-0.0309,-0.0106,-0.0928,0.098
8.905000,0.0186,-0.0060,-0.0373,0.042
8.905000,-0.0225,0.0082,-0.0060,0.025
8.906000,-0.0536,0.0174,-0.0046,0.057
8.906000,-0.0384,0.0029,-0.0388,0.055
8.906000,-0.0151,-0.0364,-0.0276,0.048
8.912000,0.0187,-0.0208,-0.0080,0.029
8.919000,-0.0214,-0.0469,-0.0111,0.053
8.922000,-0.0005,-0.0561,-0.0046,0.056
8.928000,-0.0059,-0.0404,0.0007,0.041
8.933000,-0.0361,-0.0449,-0.0332,0.066
8.937000,-0.0127,-0.0292,-0.0442,0.054
8.943000,-0.0336,-0.0101,-0.0657,0.074
8.948000,-0.0116,-0.0184,-0.0433,0.048
8.952000,-0.0065,-0.0065,-0.0531,0.054
8.958000,-0.0182,-0.0410,-0.0190,0.049
8.963000,-0.0131,0.0008,-0.0670,0.068
8.982000,0.0050,0.0268,-0.0554,0.062
8.983000,-0.0104,-0.0044,-0.0298,0.032
8.984000,-0.0220,0.0146,-0.0458,0.053
8.985000,-0.0478,-0.0011,-0.0462,0.066
8.988000,-0.0222,-0.0285,-0.0503,0.062
8.993000,-0.0336,-0.0034,0.0110,0.036
8.998000,-0.0248,-0.0320,-0.0446,0.060
9.023000,-0.0481,-0.0294,-0.0275,0.063
9.024000,-0.0509,-0.0329,-0.0614,0.086
9.024000,-0.0621,-0.0232,-0.0405,0.078
9.025000,-0.0267,-0.0422,-0.0282,0.057
9.025000,-0.0167,-0.0206,-0.0752,0.080
9.029000,-0.0458,-0.0122,-0.0470,0.067
9.034000,-0.0345,0.0222,-0.0392,0.057
9.041000,-0.0198,-0.0149,-0.0160,0.029
9.044000,-0.0600,0.0137,-0.0261,0.067
9.049000,-0.0201,-0.0020,-0.0385,0.044
9.055000,-0.0389,0.0252,-0.0462,0.065
9.059000,-0.0338,0.0285,-0.0680,0.081
9.064000,-0.0586,-0.0062,-0.0304,0.066
9.080000,-0.0226,-0.0098,-0.0359,0.044
9.080000,-0.0486,-0.0181,-0.0366,0.064
9.081000,-0.0483,-0.0489,0.0172,0.071
9.109000,-0.0133,-0.0391,-0.0089,0.042
9.110000,-0.0191,-0.0531,-0.0301,0.064
9.111000,-0.0271,-0.0457,-0.0014,0.053
9.111000,-0.0136,-0.0608,-0.0417,0.075
9.111000,-0.0181,-0.0426,-0.0532,0.071
9.112000,-0.0142,-0.0258,-0.0670,0.073
9.115000,-0.0377,-0.0364,-0.0440,0.068
9.121000,-0.0230,-0.0219,-0.0188,0.037
9.125000,-0.0120,-0.0052,-0.0081,0.015
9.130000,-0.0274,-0.0314,-0.0094,0.043
9.135000,-0.0178,0.0020,-0.0343,0.039
9.140000,-0.0203,-0.0289,-0.0589,0.069
9.145000,-0.0121,0.0140,-0.0490,0.052
9.150000,-0.0253,0.0090,-0.0629,0.068
9.155000,-0.0218,-0.0220,-0.0436,0.053
9.160000,0.0113,-0.0397,0.0065,0.042
9.165000,0.0147,-0.0477,0.0620,0.080
9.171000,0.0454,-0.0570,0.0744,0.104
9.175000,0.0298,-0.0507,0.0842,0.103
9.181000,0.0310,-0.0611,0.0937,0.116
9.207000,0.0242,-0.0702,0.1127,0.135
9.209000,-0.0074,-0.0236,0.0200,0.032
9.210000,-0.0044,-0.0318,-0.0657,0.073
9.211000,-0.0050,0.0134,-0.1116,0.112
9.212000,-0.0150,0.0060,-0.1346,0.136
9.216000,-0.0097,0.0212,-0.0960,0.099
9.217000,-0.0033,0.0268,-0.0366,0.045
9.260000,-0.0028,0.0394,-0.0419,0.058
9.262000,0.0225,0.0389,-0.0152,0.047
9.262000,0.0145,0.0312,-0.0446,0.056
9.263000,0.0008,-0.0060,-0.0643,0.065
9.263000,-0.0185,-0.0288,-0.0058,0.035
9.264000,0.0015,-0.0514,-0.0157,0.054
9.265000,0.0000,-0.0976,0.0289,0.102
9.265000,-0.0227,-0.1172,0.0479,0.129
9.266000,-0.0061,-0.0786,0.0285,0.084
9.266000,0.0044,-0.0617,0.0578,0.085
9.274000,-0.0172,-0.0496,0.0487,0.072
9.277000,0.0053,0.0146,0.0458,0.048
9.282000,0.0026,0.0248,0.0584,0.064
9.287000,-0.0025,0.0374,0.0522,0.064
9.292000,0.0256,0.0380,0.0367,0.059
9.297000,-0.0214,0.0623,0.0025,0.066
9.314000,-0.0241,0.0580,0.0233,0.067
9.315000,0.0006,0.0359,-0.0010,0.036
9.316000,-0.0224,0.0175,-0.0142,0.032
9.318000,-0.0226,0.0302,0.0320,0.049
9.349000,-0.0629,-0.0250,0.0229,0.071
9.350000,-0.0599,0.0046,0.0518,0.079
9.351000,-0.0521,-0.0243,0.0471,0.074
9.351000,-0.0420,-0.0303,0.0317,0.061
9.352000,-0.0353,-0.0376,0.0672,0.085
9.352000,-0.0109,-0.0258,0.0751,0.080
9.353000,-0.0222,-0.0390,0.0592,0.074
9.357000,0.0013,-0.0308,0.0505,0.059
9.363000,-0.0051,-0.0570,0.0668,0.088
9.367000,0.0005,-0.0712,0.0841,0.110
9.373000,0.0300,-0.0473,0.0585,0.081
9.377000,0.0677,-0.0521,0.0317,0.091
9.383000,0.0448,-0.0546,0.0251,0.075
9.388000,-0.0313,-0.0285,0.0598,0.073
9.393000,-0.0748,-0.0252,0.0502,0.093
9.398000,0.0435,-0.0564,-0.0677,0.098
9.414000,0.0780,-0.0553,-0.0508,0.108
9.415000,0.0725,-0.0412,0.0523,0.098
9.415000,0.0447,-0.0119,0.0750,0.088
9.449000,0.0257,-0.0243,0.1128,0.118
9.450000,0.0082,-0.0414,0.0789,0.090
9.450000,0.0278,-0.0561,0.0406,0.075
9.451000,0.0603,-0.0350,0.0533,0.088
9.451000,0.0549,-0.0853,0.0549,0.115
9.452000,0.0260,-0.1305,0.0527,0.143
9.452000,-0.0155,-0.0685,0.0500,0.086
9.455000,-0.0208,-0.0819,0.0256,0.088
9.459000,0.0014,-0.1343,0.0010,0.134
9.464000,0.0249,-0.1531,0.0262,0.157
9.470000,-0.0003,-0.1539,0.0341,0.158
9.473000,-0.0048,-0.1809,0.0642,0.192
9.478000,-0.0079,-0.1769,0.0556,0.186
9.484000,-0.0058,-0.1467,0.0706,0.163
9.488000,0.0047,-0.1893,0.0960,0.212
9.494000,-0.0300,-0.2125,0.1318,0.252
9.499000,-0.0141,-0.1975,0.1257,0.235
9.504000,-0.0076,-0.1815,0.0923,0.204
9.509000,0.0121,-0.1775,0.0710,0.192
9.515000,0.0317,-0.1902,0.0321,0.195
9.535000,-0.0319,-0.1552,0.0945,0.184
9.536000,-0.0154,-0.1324,0.0660,0.149
9.536000,0.0866,-0.1502,0.0282,0.176
9.537000,0.1215,-0.1262,0.0262,0.177
9.539000,0.0969,-0.1203,0.0216,0.156
9.544000,0.0893,-0.0776,0.0356,0.124
9.549000,0.0809,-0.0733,0.0529,0.121
9.575000,0.0547,-0.0785,0.0306,0.100
9.576000,0.0655,-0.1074,0.0391,0.132
9.577000,0.0324,-0.1218,0.0175,0.127
9.577000,0.0116,-0.1029,0.0266,0.107
9.578000,0.0087,-0.1173,-0.0143,0.118
9.580000,0.0014,-0.1494,-0.0033,0.149
9.586000,-0.0270,-0.1444,0.0346,0.151
9.590000,-0.0565,-0.1727,0.0185,0.183
9.596000,-0.0534,-0.1889,0.0388,0.200
9.601000,-0.0643,-0.2204,0.0360,0.232
9.606000,-0.0427,-0.2623,0.0528,0.271
9.610000,-0.0651,-0.2789,0.0716,0.295
9.616000,-0.0421,-0.2929,0.0816,0.307
9.635000,0.0141,-0.3282,0.1221,0.351
9.638000,0.0072,-0.3490,0.1265,0.371
9.639000,-0.0089,-0.3695,0.1390,0.395
9.639000,-0.0236,-0.3709,0.1133,0.389
9.641000,0.0545,-0.4161,0.0664,0.425
9.646000,0.0928,-0.4443,0.0753,0.460
9.651000,0.1026,-0.4319,0.0755,0.450
9.674000,0.1160,-0.4349,0.0566,0.454
9.675000,0.1423,-0.4254,0.0234,0.449
9.676000,0.1651,-0.4339,0.0340,0.465
9.676000,0.2082,-0.5080,-0.0035,0.549
9.677000,0.2074,-0.5604,0.0456,0.599
9.681000,0.2000,-0.5602,0.0474,0.597
9.688000,0.2002,-0.5802,0.0676,0.618
9.696000,0.2128,-0.5918,0.0897,0.635
9.697000,0.2124,-0.5878,0.0382,0.626
9.701000,0.1992,-0.6041,0.0030,0.636
9.709000,0.1577,-0.6095,0.0042,0.630
9.711000,0.1275,-0.5992,-0.0097,0.613
9.716000,0.0581,-0.5710,-0.0085,0.574
9.722000,0.0715,-0.5774,0.0337,0.583
9.726000,0.0395,-0.6303,-0.0046,0.632
9.730000,0.0126,-0.6927,-0.0397,0.694
9.748000,-0.0305,-0.7345,-0.0476,0.737
9.749000,-0.0364,-0.7666,-0.0367,0.768
9.749000,-0.0889,-0.7448,0.0005,0.750
9.752000,-0.1005,-0.7576,-0.0188,0.764
9.782000,-0.0667,-0.8049,-0.0274,0.808
9.783000,-0.0567,-0.8377,-0.0552,0.841
9.783000,-0.0263,-0.8083,-0.0018,0.809
9.784000,-0.0173,-0.7979,0.0597,0.800
9.784000,0.0348,-0.7933,0.1501,0.808
9.784000,0.0080,-0.8102,0.1926,0.833
9.793000,0.0084,-0.8271,0.1481,0.840
9.794000,0.0780,-0.8210,0.0939,0.830
9.797000,0.0772,-0.8257,0.0695,0.832
9.804000,0.0443,-0.7883,0.0783,0.793
9.807000,0.0662,-0.7748,0.0773,0.781
9.812000,0.0740,-0.7301,0.1225,0.744
9.817000,0.0579,-0.6961,0.0920,0.704
9.822000,0.0774,-0.6906,0.0147,0.695
9.827000,0.0996,-0.6851,0.0456,0.694
9.832000,0.0883,-0.6495,0.0785,0.660
9.837000,0.0399,-0.6604,0.0177,0.662
9.842000,0.0385,-0.6340,-0.0215,0.635
9.848000,0.0360,-0.7018,-0.0078,0.703
9.871000,0.0111,-0.7562,-0.0431,0.757
9.873000,0.0248,-0.8233,-0.0628,0.826
9.874000,-0.0365,-0.8351,-0.0458,0.837
9.875000,-0.0713,-0.9111,-0.0542,0.915
9.876000,-0.0613,-0.9483,-0.0610,0.952
9.878000,-0.0889,-0.9647,-0.0373,0.969
9.883000,-0.1868,-0.9746,-0.0881,0.996
9.924000,-0.2185,-0.9423,-0.0603,0.969
9.925000,-0.2355,-0.9550,0.0269,0.984
9.926000,-0.2879,-0.9636,0.0627,1.008
9.926000,-0.3436,-0.9647,0.1214,1.031
9.927000,-0.3463,-1.0156,0.1486,1.083
9.928000,-0.4059,-1.0146,0.1581,1.104
9.928000,-0.4475,-0.9560,0.1931,1.073
9.929000,-0.4611,-0.9521,0.2206,1.081
9.929000,-0.5079,-0.9611,0.2559,1.117
9.934000,-0.5008,-1.0010,0.1900,1.135
9.939000,-0.5428,-1.0072,0.2076,1.163
9.944000,-0.5353,-1.0204,0.2399,1.177
9.949000,-0.4957,-1.0443,0.2350,1.180
9.966000,-0.4573,-1.1170,0.2330,1.229
9.968000,-0.4286,-1.1523,0.1648,1.240
9.969000,-0.4036,-1.1972,0.1382,1.271
9.998000,-0.3702,-1.2825,0.1088,1.339
10.000000,-0.3370,-1.3485,0.0369,1.390
10.001000,-0.2716,-1.3856,0.0469,1.413
10.001000,-0.2077,-1.4308,0.0633,1.447
10.002000,-0.1834,-1.4220,0.0450,1.434
10.002000,-0.1234,-1.4333,0.0831,1.441
10.003000,-0.0341,-1.3860,0.1289,1.392
10.011000,-0.0195,-1.3505,0.1545,1.359
10.012000,0.0170,-1.3640,0.1218,1.369
10.015000,0.0576,-1.3643,0.1652,1.375
10.020000,0.1049,-1.3813,0.1849,1.398
10.025000,0.1278,-1.3850,0.1788,1.402
10.030000,0.1670,-1.3672,0.1923,1.391
10.036000,0.1725,-1.3241,0.2536,1.359
10.041000,0.1871,-1.2152,0.3881,1.289
10.045000,0.1855,-1.1340,0.4224,1.224
10.051000,0.1511,-1.0969,0.4159,1.183
10.055000,0.1499,-1.0658,0.3953,1.147
10.060000,0.1257,-1.0189,0.3734,1.092
10.066000,0.0916,-0.9635,0.3942,1.045
10.084000,0.0429,-0.9355,0.4163,1.025
10.085000,0.0551,-0.8893,0.3804,0.969
10.087000,0.0394,-0.8656,0.3469,0.933
10.089000,0.0069,-0.8154,0.4158,0.915
10.091000,-0.0033,-0.7781,0.3815,0.867
10.096000,0.0176,-0.7323,0.4260,0.847
10.101000,0.0166,-0.6696,0.4824,0.825
10.126000,0.0344,-0.5865,0.4982,0.770
10.128000,0.0445,-0.5502,0.5599,0.786
10.129000,0.0460,-0.5079,0.5273,0.734
10.129000,0.0473,-0.4608,0.5084,0.688
10.130000,0.0558,-0.4018,0.5678,0.698
10.132000,0.0496,-0.3288,0.5958,0.682
10.142000,-0.0117,-0.3373,0.5457,0.642
10.143000,-0.0070,-0.3615,0.5287,0.641
10.147000,-0.0419,-0.3416,0.5237,0.627
10.151000,-0.0918,-0.3445,0.4964,0.611
10.157000,-0.1225,-0.3642,0.4400,0.584
10.162000,-0.1649,-0.3527,0.3588,0.529
10.167000,-0.2058,-0.3962,0.2864,0.530
10.184000,-0.2512,-0.4263,0.2345,0.548
10.187000,-0.2966,-0.4204,0.2629,0.578
10.188000,-0.3357,-0.4324,0.2722,0.611
10.192000,-0.3630,-0.4442,0.3127,0.653
10.193000,-0.3855,-0.4857,0.2992,0.688
10.197000,-0.3733,-0.5342,0.3181,0.725
10.202000,-0.3861,-0.5371,0.4136,0.780
10.224000,-0.4314,-0.5701,0.4486,0.844
10.225000,-0.4311,-0.6220,0.4814,0.897
10.225000,-0.4523,-0.6106,0.5793,0.956
10.226000,-0.5237,-0.6067,0.5956,0.999
10.228000,-0.5636,-0.5731,0.6150,1.012
10.233000,-0.6164,-0.5636,0.6341,1.049
10.238000,-0.6655,-0.5893,0.6783,1.118
10.242000,-0.7094,-0.6129,0.6997,1.170
10.248000,-0.7984,-0.5939,0.7227,1.230
10.256000,-0.8139,-0.6006,0.6801,1.219
10.259000,-0.9174,-0.5839,0.6750,1.280
10.263000,-0.9855,-0.5775,0.6635,1.321
10.268000,-1.0402,-0.5694,0.6406,1.348
10.272000,-1.1160,-0.5261,0.5597,1.355
10.278000,-1.1653,-0.5184,0.5358,1.383
10.283000,-1.1801,-0.5138,0.5435,1.397
10.301000,-1.2276,-0.4814,0.5303,1.421
10.303000,-1.2360,-0.4224,0.5748,1.427
10.304000,-1.2514,-0.3787,0.5720,1.427
10.305000,-1.2429,-0.2869,0.5636,1.395
10.344000,-1.2262,-0.2656,0.6022,1.392
10.345000,-1.1583,-0.2393,0.6135,1.332
10.347000,-1.0788,-0.2306,0.6069,1.259
10.348000,-0.9863,-0.2024,0.5907,1.167
10.349000,-0.8781,-0.1798,0.5879,1.072
10.350000,-0.7313,-0.1663,0.5768,0.946
10.351000,-0.5995,-0.1644,0.5300,0.817
10.352000,-0.4704,-0.1654,0.5562,0.747
10.352000,-0.3346,-0.1635,0.5561,0.669
10.360000,-0.2504,-0.1441,0.5918,0.659
10.361000,-0.1607,-0.0821,0.6293,0.655
10.364000,-0.0715,-0.0230,0.6351,0.640
10.369000,-0.0378,0.0503,0.6161,0.619
10.375000,-0.0037,0.1222,0.6723,0.683
10.380000,0.0646,0.1439,0.6779,0.696
10.384000,0.1011,0.1597,0.6351,0.663
10.389000,0.1321,0.1244,0.6405,0.666
10.395000,0.1700,0.1002,0.6342,0.664
10.400000,0.1656,0.1015,0.6057,0.636
10.418000,0.2002,0.0756,0.5751,0.614
10.420000,0.2021,0.0392,0.6215,0.655
10.420000,0.1833,0.0295,0.6205,0.648
10.421000,0.1436,-0.0112,0.6296,0.646
10.462000,0.1295,-0.0648,0.6800,0.695
10.463000,0.1005,-0.0765,0.7013,0.713
10.464000,0.0518,-0.1014,0.7081,0.717
10.465000,0.0148,-0.1552,0.7043,0.721
10.465000,-0.0455,-0.1949,0.7395,0.766
10.466000,-0.0592,-0.2766,0.7296,0.782
10.466000,-0.1389,-0.2091,0.7562,0.797
10.467000,-0.2551,-0.0657,0.7120,0.759
10.468000,-0.3135,-0.0607,0.7454,0.811
10.471000,-0.3608,-0.0563,0.8336,0.910
10.478000,-0.3417,-0.1122,0.9575,1.023
10.481000,-0.3519,-0.0789,1.0175,1.080
10.485000,-0.3964,0.0339,0.9851,1.062
10.492000,-0.4373,0.1207,1.0124,1.109
10.496000,-0.4270,0.1780,0.9608,1.066
10.501000,-0.4191,0.2011,0.8949,1.008
10.506000,-0.4002,0.2391,0.8013,0.927
10.511000,-0.4096,0.2752,0.7103,0.865
10.516000,-0.3994,0.3084,0.6144,0.795
10.521000,-0.3969,0.3376,0.5447,0.754
10.541000,-0.4389,0.4333,0.4378,0.756
10.542000,-0.4570,0.5142,0.3653,0.779
10.543000,-0.4202,0.6534,0.3082,0.836
10.543000,-0.4543,0.7740,0.2629,0.935
10.548000,-0.4704,0.9050,0.1708,1.034
10.551000,-0.4220,1.0140,0.1695,1.111
10.590000,-0.4637,1.1320,0.0988,1.227
10.591000,-0.4529,1.2686,0.0257,1.347
10.592000,-0.4448,1.3474,0.0088,1.419
10.593000,-0.4321,1.3994,-0.0489,1.465
10.593000,-0.4140,1.4596,-0.1513,1.525
10.594000,-0.3737,1.5077,-0.2616,1.575
10.594000,-0.3481,1.5069,-0.3456,1.585
10.595000,-0.3395,1.5350,-0.4264,1.629
10.596000,-0.2655,1.5801,-0.5588,1.697
10.602000,-0.2061,1.6363,-0.6269,1.764
10.607000,-0.2074,1.7190,-0.6321,1.843
10.612000,-0.1630,1.8093,-0.6164,1.918
10.617000,-0.1403,1.9319,-0.4875,1.997
10.634000,-0.0701,2.0572,-0.3331,2.085
10.636000,-0.0123,2.1241,-0.2408,2.138
10.637000,0.0704,2.2367,-0.1622,2.244
10.638000,0.0549,2.4424,-0.1543,2.448
10.675000,0.0679,2.6242,-0.1440,2.629
10.676000,0.0667,2.7784,-0.0980,2.781
10.678000,0.0436,2.9586,-0.1186,2.961
10.679000,0.0599,3.1327,-0.1187,3.136
10.680000,0.0639,3.2900,-0.1067,3.292
10.681000,0.0758,3.4241,-0.1001,3.426
10.682000,0.1055,3.4828,-0.1658,3.488
10.683000,0.1628,3.6418,-0.1341,3.648
10.684000,0.1524,3.8352,-0.1697,3.842
10.690000,0.1245,4.0281,-0.1068,4.031
10.694000,0.1264,4.1760,-0.1055,4.179
10.698000,0.2178,4.0761,-0.1207,4.084
10.703000,0.4551,3.6404,0.1465,3.672
10.709000,0.5142,3.7344,0.2069,3.775
10.713000,0.5427,3.8960,0.0046,3.934
10.718000,0.6538,3.8331,-0.2970,3.900
10.736000,0.6986,3.8286,-0.5334,3.928
10.739000,0.7481,3.8284,-0.7392,3.970
10.741000,0.8269,3.8314,-0.9314,4.029
10.742000,0.9028,3.7969,-1.0539,4.043
10.778000,0.9888,3.7847,-1.1124,4.067
10.780000,1.0905,3.7274,-1.1888,4.062
10.781000,1.2275,3.5870,-1.2637,3.996
10.782000,1.3161,3.4662,-1.2751,3.921
10.784000,1.3732,3.3161,-1.2154,3.789
10.785000,1.4571,3.1854,-1.1347,3.682
10.786000,1.4972,3.0264,-1.0005,3.522
10.787000,1.5092,2.8198,-0.9083,3.325
10.790000,1.5506,2.6147,-0.8338,3.152
10.791000,1.5509,2.4385,-0.7576,2.988
10.794000,1.4732,2.3795,-0.6830,2.881
10.800000,1.3492,2.2022,-0.6881,2.673
10.807000,1.2694,1.9796,-0.7609,2.472
10.809000,1.1801,1.7704,-0.7649,2.261
10.814000,1.0837,1.5674,-0.8144,2.072
10.819000,0.9937,1.4029,-0.8338,1.911
10.824000,0.8848,1.2196,-0.8983,1.754
10.830000,0.8119,0.9945,-0.8822,1.558
10.835000,0.7534,0.7936,-0.9253,1.433
10.852000,0.6713,0.6323,-1.0058,1.365
10.853000,0.6051,0.4411,-1.0197,1.265
10.855000,0.5560,0.2645,-1.0496,1.217
10.856000,0.4771,0.1370,-1.0514,1.163
10.896000,0.3993,0.0024,-1.0358,1.110
10.897000,0.3738,-0.1477,-1.0530,1.127
10.898000,0.3193,-0.2868,-1.0757,1.158
10.899000,0.2920,-0.4091,-1.0537,1.168
10.899000,0.2598,-0.5181,-1.0016,1.157
10.900000,0.2381,-0.6533,-0.9874,1.208
10.901000,0.2494,-0.7561,-0.9415,1.233
10.901000,0.2651,-0.8516,-0.8677,1.244
10.902000,0.2996,-1.0057,-0.8696,1.363
10.910000,0.3002,-1.0880,-0.8351,1.404
10.912000,0.2854,-1.1605,-0.8693,1.478
10.916000,0.2526,-1.2126,-0.8171,1.484
10.921000,0.2664,-1.3113,-0.7479,1.533
10.926000,0.2610,-1.3811,-0.7608,1.598
10.931000,0.2350,-1.4233,-0.8357,1.667
10.936000,0.2451,-1.4928,-0.8304,1.726
10.955000,0.2313,-1.5012,-0.8379,1.735
10.960000,0.1936,-1.5752,-0.8921,1.821
10.961000,0.1967,-1.6323,-0.9154,1.882
10.961000,0.1722,-1.6377,-0.9494,1.901
10.962000,0.1803,-1.6322,-0.9744,1.909
10.966000,0.1798,-1.6110,-0.9960,1.903
10.970000,0.1937,-1.6005,-1.0242,1.910
10.996000,0.1839,-1.5753,-1.0386,1.896
10.998000,0.1943,-1.5022,-1.0298,1.832
10.999000,0.2249,-1.4398,-1.0553,1.799
11.000000,0.2281,-1.3772,-1.0339,1.737
11.001000,0.2157,-1.2882,-1.0036,1.647
11.002000,0.2296,-1.2290,-0.9205,1.553
11.009000,0.2254,-1.1146,-0.8994,1.450
11.011000,0.2358,-1.0290,-0.8650,1.365
11.016000,0.2413,-0.9349,-0.8407,1.280
11.021000,0.2209,-0.8252,-0.7563,1.141
11.026000,0.1958,-0.7179,-0.7155,1.032
11.032000,0.1793,-0.6333,-0.6731,0.941
11.037000,0.2061,-0.5451,-0.6114,0.845
11.043000,0.2020,-0.4760,-0.5543,0.758
11.048000,0.2269,-0.3888,-0.4518,0.638
11.051000,0.2126,-0.3136,-0.4364,0.578
11.068000,0.2478,-0.2239,-0.3882,0.512
11.070000,0.2394,-0.1045,-0.3476,0.435
11.070000,0.2101,0.0401,-0.3924,0.447
11.071000,0.1276,0.1271,-0.4160,0.453
11.106000,0.0861,0.2332,-0.5109,0.568
11.107000,0.0368,0.3250,-0.5372,0.629
11.108000,0.0354,0.4096,-0.4998,0.647
11.109000,0.0245,0.5206,-0.4707,0.702
11.109000,0.0556,0.5933,-0.4393,0.740
11.110000,0.0627,0.6529,-0.3482,0.743
11.112000,0.0962,0.6647,-0.2690,0.723
11.112000,0.1322,0.6431,-0.1956,0.685
11.117000,0.1398,0.6731,-0.0717,0.691
11.124000,0.1502,0.6374,0.0226,0.655
11.128000,0.1297,0.6567,0.0625,0.672
11.133000,0.1158,0.6546,0.1296,0.677
11.138000,0.0866,0.7087,0.1018,0.721
11.143000,0.0279,0.7448,0.1313,0.757
11.147000,-0.0409,0.8215,0.1020,0.829
11.153000,-0.0833,0.9053,0.0465,0.910
11.159000,-0.0981,1.0201,0.0376,1.025
11.163000,-0.1198,1.0594,-0.0035,1.066
11.168000,-0.1489,1.1261,-0.0050,1.136
11.193000,-0.1528,1.1366,-0.0518,1.148
11.195000,-0.1243,1.1649,-0.0839,1.175
11.195000,-0.0957,1.1609,-0.1000,1.169
11.196000,-0.0586,1.1581,-0.0764,1.162
11.197000,-0.0345,1.0596,-0.1066,1.065
11.199000,0.0317,0.9696,-0.1007,0.975
11.247000,0.1006,0.8856,-0.0802,0.895
11.248000,0.1326,0.7671,-0.1065,0.786
11.248000,0.1843,0.6870,-0.0957,0.718
11.249000,0.2005,0.5831,-0.1018,0.625
11.250000,0.2482,0.4733,-0.0733,0.539
11.250000,0.2354,0.4080,-0.0964,0.481
11.251000,0.1943,0.3032,-0.1530,0.391
11.251000,0.1920,0.2249,-0.1306,0.323
11.252000,0.1925,0.1491,-0.2051,0.318
11.252000,0.1454,0.0889,-0.2151,0.274
11.254000,0.1381,0.0479,-0.2108,0.256
11.260000,0.1404,-0.0037,-0.2329,0.272
11.264000,0.1489,-0.0745,-0.2790,0.325
11.270000,0.1240,-0.1571,-0.2616,0.329
11.274000,0.1396,-0.2145,-0.3184,0.408
11.280000,0.1482,-0.2885,-0.3583,0.483
11.285000,0.1412,-0.3529,-0.2963,0.482
11.302000,0.1237,-0.4149,-0.3192,0.538
11.303000,0.1467,-0.4553,-0.3527,0.594
11.303000,0.1292,-0.4777,-0.3752,0.621
11.333000,0.1546,-0.4989,-0.4193,0.670
11.334000,0.1860,-0.5224,-0.4253,0.699
11.335000,0.1695,-0.5542,-0.4123,0.711
11.335000,0.2116,-0.5788,-0.4043,0.737
11.336000,0.1986,-0.5998,-0.3261,0.711
11.336000,0.2204,-0.6219,-0.3367,0.741
11.336000,0.2242,-0.6583,-0.3150,0.763
11.345000,0.2173,-0.6780,-0.3030,0.774
11.346000,0.1792,-0.6689,-0.2588,0.739
11.350000,0.1625,-0.7052,-0.2315,0.760
11.355000,0.1567,-0.7104,-0.2724,0.777
11.360000,0.1424,-0.7096,-0.2594,0.769
11.365000,0.1052,-0.7399,-0.2489,0.788
11.370000,0.0908,-0.7128,-0.2395,0.757
11.375000,0.0713,-0.6773,-0.1976,0.709
11.380000,0.0340,-0.6491,-0.1905,0.677
11.385000,0.0215,-0.6341,-0.2132,0.669
11.401000,0.0028,-0.5868,-0.1842,0.615
11.402000,-0.0245,-0.5826,-0.1372,0.599
11.402000,-0.0267,-0.5366,-0.1668,0.563
11.405000,0.0019,-0.5194,-0.1437,0.539
11.432000,-0.0164,-0.4687,-0.1220,0.485
11.433000,-0.0264,-0.4216,-0.0977,0.434
11.433000,-0.0449,-0.3734,-0.1010,0.389
11.434000,-0.0324,-0.3384,-0.1057,0.356
11.434000,-0.0391,-0.3225,-0.0854,0.336
11.436000,-0.0374,-0.2756,-0.0509,0.283
11.443000,-0.0226,-0.2084,-0.0228,0.211
11.446000,-0.0018,-0.1424,0.0349,0.147
11.451000,0.0022,-0.0872,0.0552,0.103
11.458000,-0.0022,-0.0548,0.0428,0.070
11.462000,-0.0100,-0.0189,0.0959,0.098
11.466000,-0.0272,0.0351,0.1511,0.157
11.471000,-0.0098,0.0853,0.1726,0.193
11.476000,0.0185,0.1116,0.1520,0.189
11.482000,-0.0189,0.1403,0.2041,0.248
11.487000,0.0225,0.1726,0.2344,0.292
11.501000,0.0353,0.2191,0.2490,0.334
11.502000,0.0065,0.2681,0.2922,0.397
11.502000,0.0006,0.2894,0.3042,0.420
11.536000,-0.0354,0.3382,0.2912,0.448
11.538000,-0.0257,0.3942,0.2710,0.479
11.538000,-0.0100,0.3855,0.2594,0.465
11.539000,-0.0349,0.4305,0.2479,0.498
11.539000,-0.0345,0.4756,0.2292,0.529
11.540000,-0.0329,0.5194,0.2596,0.582
11.541000,-0.0133,0.5308,0.2373,0.582
11.543000,-0.0010,0.5315,0.2140,0.573
11.548000,-0.0076,0.5572,0.1992,0.592
11.553000,0.0072,0.5507,0.1570,0.573
11.558000,0.0139,0.5632,0.1795,0.591
11.563000,0.0349,0.5279,0.1386,0.547
11.568000,0.0345,0.4963,0.1086,0.509
11.573000,0.0380,0.4802,0.1229,0.497
11.578000,0.0644,0.4474,0.1374,0.472
11.583000,0.0886,0.4265,0.1065,0.448
11.588000,0.0878,0.3926,0.0782,0.410
11.594000,0.0549,0.3335,0.0799,0.347
11.598000,0.0843,0.3175,0.0135,0.329
11.603000,0.0397,0.2670,-0.0098,0.270
11.621000,0.0333,0.2260,0.0086,0.229
11.623000,0.0534,0.2341,-0.0256,0.241
11.623000,0.0244,0.2016,-0.0287,0.205
11.624000,0.0013,0.2026,-0.0199,0.204
11.660000,-0.0100,0.1916,-0.0471,0.198
11.662000,-0.0081,0.1603,-0.0023,0.161
11.662000,0.0022,0.1159,-0.0076,0.116
11.663000,0.0015,0.0907,-0.0092,0.091
11.664000,0.0101,0.0642,-0.0198,0.068
11.665000,0.0081,0.0485,-0.0672,0.083
11.665000,0.0095,0.0196,-0.0137,0.026
11.666000,0.0253,-0.0260,-0.0268,0.045
11.669000,0.0396,-0.1026,-0.0111,0.111
11.676000,0.0850,-0.1314,0.0056,0.157
11.679000,0.1411,-0.1708,0.0138,0.222
11.684000,0.1863,-0.2388,0.0911,0.316
11.690000,0.1956,-0.3128,0.1563,0.401
11.694000,0.1622,-0.3006,0.1561,0.375
11.700000,0.1647,-0.3100,0.0787,0.360
11.704000,0.0909,-0.2596,0.0435,0.278
11.709000,0.0397,-0.2189,-0.0692,0.233
11.715000,-0.0247,-0.2057,-0.1651,0.265
11.720000,-0.0572,-0.1530,-0.1915,0.252
11.738000,-0.0482,-0.1567,-0.1954,0.255
11.740000,-0.0250,-0.1495,-0.1526,0.215
11.740000,-0.0152,-0.1448,-0.1624,0.218
11.741000,0.0351,-0.1759,-0.1426,0.229
11.745000,0.0638,-0.2559,-0.1121,0.287
11.749000,0.0852,-0.3024,-0.0422,0.317
11.754000,0.0789,-0.3321,-0.0119,0.342
11.777000,0.0812,-0.3892,-0.0476,0.400
11.778000,0.0883,-0.3865,-0.0392,0.398
11.779000,0.0632,-0.3789,-0.0143,0.384
11.780000,0.0706,-0.4001,0.0511,0.409
11.781000,0.0553,-0.3399,0.0507,0.348
11.785000,0.0100,-0.2798,0.0479,0.284
11.793000,-0.0235,-0.2079,0.0095,0.209
11.795000,-0.0270,-0.1623,0.0060,0.165
11.801000,-0.0188,-0.1264,-0.0079,0.128
11.806000,-0.0571,-0.1157,0.0297,0.132
11.811000,-0.0741,-0.0489,0.0222,0.091
11.816000,-0.0506,-0.0466,0.0018,0.069
11.821000,-0.0271,-0.0182,-0.0016,0.033
11.845000,-0.0419,-0.0244,0.0117,0.050
11.847000,-0.0353,-0.0222,-0.0170,0.045
11.848000,0.0073,-0.0248,-0.0100,0.028
11.849000,0.0365,-0.0296,-0.0258,0.054
11.849000,0.0313,-0.0226,0.0616,0.073
11.893000,0.0382,-0.0369,0.0874,0.102
11.894000,0.0488,0.0261,0.0797,0.097
11.895000,0.0346,0.0493,0.0695,0.092
11.896000,0.0172,0.0724,0.0736,0.105
11.896000,-0.0011,0.1001,0.0573,0.115
11.897000,-0.0215,0.1180,0.0505,0.130
11.898000,-0.0415,0.1524,0.0486,0.165
11.898000,-0.0339,0.1746,-0.0090,0.178
11.899000,-0.0644,0.1789,0.0100,0.190
11.899000,-0.0661,0.1937,0.0169,0.205
11.902000,-0.0523,0.1919,-0.0179,0.200
11.907000,-0.0613,0.1663,0.0165,0.178
11.913000,-0.0726,0.1682,0.0151,0.184
11.917000,-0.0196,0.1416,0.0018,0.143
11.922000,-0.0075,0.1461,0.0029,0.146
11.927000,-0.0253,0.1636,0.0147,0.166
11.932000,-0.0143,0.1430,-0.0210,0.145
11.937000,0.0169,0.1653,0.0101,0.166
11.955000,0.0076,0.1423,0.0269,0.145
11.957000,0.0269,0.1348,0.0451,0.145
11.958000,0.0247,0.1536,0.0609,0.167
11.958000,0.0072,0.1638,0.0377,0.168
11.995000,0.0063,0.1692,0.0396,0.174
11.996000,0.0161,0.1413,0.0129,0.143
11.997000,0.0518,0.1291,0.0078,0.139
11.998000,0.0448,0.1087,-0.0032,0.118
11.998000,0.0495,0.0968,0.0202,0.111
11.999000,0.0446,0.0945,0.0267,0.108
11.999000,0.0684,0.0862,-0.0061,0.110
12.000000,0.0589,0.0567,-0.0482,0.095
12.003000,0.0541,0.0512,-0.0284,0.080
12.009000,0.0140,0.0529,-0.0313,0.063
12.013000,0.0373,0.0557,-0.0639,0.093
12.018000,-0.0119,0.0609,-0.0465,0.078
12.023000,-0.0227,0.0589,-0.0564,0.085
12.028000,-0.0322,0.0344,-0.0839,0.096
12.034000,-0.0118,0.0480,-0.0754,0.090
12.038000,-0.0156,0.0615,-0.0740,0.098
12.056000,-0.0159,0.0334,-0.0688,0.078
12.059000,-0.0115,0.0268,-0.0895,0.094
12.059000,-0.0120,0.0191,-0.0813,0.084
12.060000,-0.0078,0.0185,-0.1110,0.113
12.063000,0.0176,0.0168,-0.1439,0.146
12.067000,0.0368,0.0150,-0.1444,0.150
12.073000,0.0581,-0.0271,-0.1556,0.168
12.094000,0.0720,-0.0557,-0.1466,0.173
12.095000,0.0975,-0.0509,-0.1021,0.150
12.095000,0.0906,-0.0829,-0.0651,0.139
12.095000,0.1077,-0.0933,-0.0820,0.164
12.099000,0.1269,-0.1273,-0.1190,0.216
12.104000,0.1198,-0.1444,-0.1285,0.227
12.109000,0.1199,-0.1803,-0.0920,0.235
12.114000,0.0655,-0.1436,-0.0985,0.186
12.119000,0.0625,-0.1130,-0.0671,0.146
12.127000,0.0559,-0.1278,-0.0729,0.157
12.129000,0.0386,-0.1365,-0.0916,0.169
12.134000,0.0345,-0.1607,-0.0639,0.176
12.139000,0.0352,-0.1323,-0.0280,0.140
12.144000,0.0049,-0.0936,-0.0148,0.095
12.150000,-0.0358,-0.0979,-0.0171,0.106
12.155000,-0.0383,-0.1045,0.0127,0.112
12.172000,-0.0135,-0.0838,0.0174,0.087
12.173000,-0.0067,-0.0644,-0.0171,0.067
12.174000,-0.0224,-0.0785,-0.0393,0.091
12.208000,-0.0213,-0.0805,-0.0082,0.084
12.209000,-0.0321,-0.0505,0.0178,0.062
12.209000,-0.0381,-0.0908,-0.0217,0.101
12.210000,-0.0120,-0.0963,-0.0374,0.104
12.210000,-0.0169,-0.0969,-0.0140,0.099
12.211000,-0.0063,-0.1011,-0.0050,0.101
12.211000,0.0185,-0.0602,-0.0117,0.064
12.211000,0.0110,-0.0896,-0.0182,0.092
12.215000,-0.0033,-0.1094,0.0085,0.110
12.220000,0.0337,-0.0577,0.0256,0.072
12.226000,0.0468,-0.0527,0.0532,0.088
12.230000,0.0635,-0.0644,0.0546,0.106
12.234000,0.0729,-0.0570,0.0974,0.134
12.239000,0.0694,-0.0248,0.0841,0.112
12.244000,0.0684,-0.0046,0.0789,0.105
12.250000,0.0271,-0.0250,0.0856,0.093
12.255000,0.0208,-0.0001,0.0329,0.039
12.269000,0.0038,0.0293,0.0553,0.063
12.271000,-0.0024,0.0336,0.0096,0.035
12.271000,-0.0371,0.0628,0.0237,0.077
12.303000,-0.0382,0.0537,0.0388,0.077
12.304000,-0.0216,0.0566,0.0338,0.069
12.305000,-0.0180,0.0452,-0.0030,0.049
12.305000,-0.0228,0.0743,0.0402,0.087
12.306000,-0.0311,0.0591,0.0026,0.067
12.306000,-0.0107,0.0892,0.0368,0.097
12.306000,0.0332,0.0858,0.0507,0.105
12.315000,0.0661,0.0302,0.0775,0.106
12.316000,0.1118,-0.0262,0.1372,0.179
12.321000,0.1503,-0.0844,0.1889,0.256
12.328000,0.1814,-0.0851,0.2387,0.312
12.331000,0.1877,-0.1321,0.2586,0.346
12.336000,0.1766,-0.0767,0.2157,0.289
12.341000,0.1151,-0.0360,0.1094,0.163
12.346000,0.0756,-0.0206,-0.0066,0.079
12.351000,0.0198,0.0161,-0.0909,0.094
12.356000,0.0075,0.0798,-0.1140,0.139
12.361000,0.0238,0.0943,-0.1312,0.163
12.366000,0.0446,0.0957,-0.1200,0.160
12.371000,0.0345,0.1410,-0.0876,0.169
12.388000,0.0853,0.1348,-0.0590,0.170
12.389000,0.1216,0.0848,-0.0380,0.153
12.390000,0.1576,0.0210,0.0077,0.159
12.423000,0.1661,-0.0209,0.0705,0.182
12.424000,0.1652,-0.0624,0.1303,0.219
12.425000,0.2216,-0.1202,0.1397,0.288
12.425000,0.2219,-0.0790,0.1467,0.277
12.426000,0.1973,-0.0832,0.1574,0.266
12.427000,0.2239,-0.0601,0.1313,0.266
12.427000,0.2030,-0.0004,0.1354,0.244
12.429000,0.1822,0.0480,0.1219,0.224
12.432000,0.1710,0.0913,0.0662,0.205
12.438000,0.1588,0.1271,0.0756,0.217
12.444000,0.1277,0.1768,0.0675,0.228
12.448000,0.1466,0.1608,0.0433,0.222
12.453000,0.1191,0.1437,-0.0005,0.187
12.458000,0.1263,0.1575,-0.0318,0.204
12.463000,0.1798,0.1369,0.0038,0.226
12.468000,0.1915,0.0820,0.0117,0.209
12.473000,0.2270,0.0762,0.0302,0.241
12.498000,0.2079,0.0634,0.1008,0.240
12.499000,0.2036,-0.0075,0.1244,0.239
12.500000,0.2460,-0.0148,0.1240,0.276
12.501000,0.2432,-0.0352,0.1366,0.281
12.505000,0.2526,-0.0660,0.1039,0.281
12.506000,0.2528,-0.0728,0.1321,0.294
12.508000,0.2686,-0.0368,0.1706,0.320
12.552000,0.2809,-0.0688,0.1779,0.340
12.553000,0.2849,-0.0815,0.2021,0.359
12.554000,0.3150,-0.0514,0.2155,0.385
12.555000,0.3330,-0.0536,0.2313,0.409
12.555000,0.3106,-0.0522,0.2889,0.427
12.556000,0.3110,-0.0057,0.2559,0.403
12.556000,0.3246,-0.0166,0.2567,0.414
12.557000,0.3191,0.0023,0.2447,0.402
12.557000,0.3422,0.0317,0.2176,0.407
12.565000,0.3486,0.0466,0.2100,0.410
12.566000,0.3075,0.0898,0.1932,0.374
12.569000,0.3000,0.1102,0.2006,0.377
12.575000,0.3248,0.0995,0.1903,0.389
12.579000,0.3103,0.1019,0.1696,0.368
12.584000,0.2653,0.0628,0.2231,0.352
12.589000,0.2268,0.0809,0.2707,0.362
12.606000,0.2518,0.1274,0.2686,0.390
12.607000,0.2507,0.1059,0.2161,0.348
12.608000,0.2664,0.1224,0.1585,0.333
12.649000,0.3141,0.1176,0.1844,0.383
12.650000,0.3201,0.0724,0.1995,0.384
12.651000,0.3229,0.0169,0.2049,0.383
12.652000,0.3595,0.0011,0.2374,0.431
12.652000,0.3499,-0.0584,0.2423,0.430
12.652000,0.3504,-0.0663,0.2471,0.434
12.653000,0.3444,-0.0682,0.3052,0.465
12.653000,0.3022,-0.0962,0.3582,0.478
12.654000,0.3179,-0.1013,0.3374,0.474
12.655000,0.3123,-0.1135,0.3774,0.503
12.661000,0.2502,-0.0508,0.4078,0.481
12.665000,0.2469,-0.0538,0.4371,0.505
12.670000,0.2448,-0.0616,0.4273,0.496
12.675000,0.2404,-0.0479,0.3383,0.418
12.681000,0.2267,-0.0106,0.3774,0.440
12.685000,0.2379,-0.0543,0.3797,0.451
12.691000,0.2348,-0.0465,0.3385,0.415
12.707000,0.2475,-0.0021,0.3244,0.408
12.708000,0.2732,-0.0030,0.3382,0.435
12.709000,0.2665,-0.0289,0.2975,0.400
12.744000,0.2269,-0.0355,0.3169,0.391
12.745000,0.2306,-0.0706,0.3141,0.396
12.746000,0.2723,-0.0697,0.2984,0.410
12.746000,0.3033,-0.0794,0.3376,0.461
12.747000,0.2951,-0.1163,0.4074,0.516
12.747000,0.3064,-0.0911,0.3818,0.498
12.748000,0.2858,-0.0815,0.3446,0.455
12.748000,0.2910,-0.0980,0.3448,0.462
12.751000,0.2644,-0.1071,0.3734,0.470
12.756000,0.2693,-0.0853,0.3382,0.441
12.761000,0.3374,-0.0481,0.3071,0.459
12.766000,0.3782,-0.0159,0.2969,0.481
12.771000,0.3679,-0.0231,0.2764,0.461
12.778000,0.4019,-0.0349,0.2279,0.463
12.782000,0.3993,0.0058,0.2524,0.472
12.787000,0.3932,0.0224,0.2890,0.488
12.792000,0.4002,0.0164,0.2366,0.465
12.797000,0.4172,-0.0168,0.2290,0.476
12.802000,0.4499,-0.0365,0.2704,0.526
12.807000,0.4293,-0.0749,0.2285,0.492
12.826000,0.4248,-0.0797,0.2665,0.508
12.827000,0.4119,-0.0549,0.3309,0.531
12.828000,0.3789,-0.0372,0.2831,0.474
12.829000,0.3823,-0.0636,0.1820,0.428
12.833000,0.3548,-0.0349,0.1760,0.398
12.837000,0.3348,-0.0287,0.2051,0.394
12.842000,0.3137,-0.0165,0.2119,0.379
12.869000,0.2806,-0.0234,0.2350,0.367
12.870000,0.2833,0.0034,0.2370,0.369
12.871000,0.2776,-0.0188,0.2411,0.368
12.872000,0.2933,-0.0098,0.2244,0.369
12.873000,0.2766,-0.0246,0.2391,0.366
12.873000,0.2750,-0.0238,0.2350,0.362
12.884000,0.2828,-0.0372,0.2600,0.386
12.885000,0.2939,-0.0098,0.2972,0.418
12.888000,0.3406,-0.0362,0.2774,0.441
12.897000,0.3515,-0.0373,0.2269,0.420
12.899000,0.3277,-0.0263,0.2368,0.405
12.904000,0.3314,0.0124,0.2604,0.422
12.908000,0.3480,0.0283,0.2417,0.425
12.913000,0.3082,0.0660,0.2200,0.384
12.918000,0.3388,0.0606,0.2648,0.434
12.923000,0.3344,0.1009,0.2268,0.416
12.941000,0.3367,0.0849,0.1654,0.385
12.942000,0.3581,0.0740,0.1335,0.389
12.943000,0.3830,0.0680,0.0911,0.400
12.945000,0.4056,0.0216,0.0904,0.416
12.948000,0.4640,-0.0056,0.1322,0.482
12.954000,0.5059,-0.0636,0.1470,0.531
12.958000,0.5146,-0.1274,0.3209,0.620
12.978000,0.5643,-0.2292,0.2801,0.670
12.979000,0.5976,-0.2997,0.1957,0.697
12.980000,0.6115,-0.3064,0.2153,0.717
12.981000,0.5936,-0.2948,0.2182,0.698
12.984000,0.6015,-0.3679,0.0804,0.710
12.989000,0.5753,-0.3928,0.0027,0.697
12.995000,0.5434,-0.3386,0.0732,0.644
12.999000,0.5433,-0.3439,0.0217,0.643
13.004000,0.5112,-0.3443,-0.0765,0.621
13.009000,0.5044,-0.3409,-0.0378,0.610
13.014000,0.4527,-0.3600,-0.0508,0.581
13.020000,0.4433,-0.4052,-0.0214,0.601
13.025000,0.4019,-0.4322,0.0565,0.593
13.042000,0.3844,-0.4687,0.1407,0.622
13.044000,0.3219,-0.4858,0.1919,0.614
13.047000,0.2836,-0.5135,0.2150,0.625
13.047000,0.2099,-0.4980,0.2612,0.600
13.049000,0.1425,-0.4573,0.3747,0.608
13.055000,0.0622,-0.3304,0.4854,0.590
13.059000,-0.0451,-0.2691,0.5603,0.623
13.089000,-0.1296,-0.1910,0.5138,0.563
13.091000,-0.2189,-0.1090,0.4372,0.501
13.091000,-0.2831,-0.0030,0.4314,0.516
13.092000,-0.3513,0.0637,0.3448,0.496
13.093000,-0.3616,0.1436,0.2800,0.479
13.093000,-0.3988,0.1330,0.2220,0.475
13.104000,-0.3804,0.1237,0.1082,0.414
13.105000,-0.3377,0.0261,0.0382,0.341
13.106000,-0.3016,-0.0079,-0.0203,0.302
13.119000,-0.2378,0.0287,0.0909,0.256
13.120000,-0.1282,-0.0997,0.1487,0.220
13.121000,-0.0279,-0.2135,0.1352,0.254
13.126000,0.0412,-0.2851,0.0731,0.297
13.132000,0.0509,-0.3406,0.0676,0.351
13.136000,0.0682,-0.3957,0.0315,0.403
13.141000,0.0642,-0.4420,-0.0069,0.447
13.163000,0.0331,-0.4675,0.0713,0.474
13.165000,0.0212,-0.5022,0.0959,0.512
13.165000,0.0165,-0.5366,0.1182,0.550
13.166000,0.0233,-0.5769,0.1776,0.604
13.174000,-0.0051,-0.6468,0.1885,0.674
13.176000,0.0041,-0.6758,0.2081,0.707
13.177000,-0.0042,-0.6785,0.2458,0.722
13.213000,0.0134,-0.6271,0.2839,0.689
13.214000,-0.0113,-0.5434,0.3032,0.622
13.215000,-0.0102,-0.4046,0.4063,0.574
13.216000,-0.0396,-0.2624,0.5010,0.567
13.216000,-0.0706,-0.1799,0.5017,0.538
13.217000,-0.0900,-0.0637,0.4576,0.471
13.217000,-0.1230,0.0490,0.4240,0.444
13.218000,-0.1150,0.1559,0.4309,0.472
13.221000,-0.0860,0.1889,0.4468,0.493
13.226000,-0.0925,0.2295,0.3623,0.439
13.232000,-0.0611,0.2706,0.3586,0.453
13.237000,-0.0542,0.3254,0.4291,0.541
13.242000,-0.0251,0.3087,0.3939,0.501
13.257000,0.0288,0.2540,0.3316,0.419
13.258000,0.1075,0.2036,0.3503,0.419
13.259000,0.1478,0.1177,0.3107,0.364
13.288000,0.2324,0.0157,0.2260,0.325
13.289000,0.2884,-0.0907,0.1852,0.355
13.290000,0.3546,-0.1485,0.2460,0.456
13.291000,0.4055,-0.2120,0.2321,0.513
13.291000,0.4400,-0.3228,0.2392,0.596
13.292000,0.4642,-0.3447,0.1895,0.608
13.292000,0.4699,-0.4006,0.2140,0.653
13.302000,0.4663,-0.4691,0.2636,0.712
13.303000,0.4488,-0.5275,0.2175,0.726
13.308000,0.4409,-0.5448,0.1844,0.725
13.314000,0.3733,-0.6309,0.1195,0.743
13.318000,0.3185,-0.6760,0.0308,0.748
13.322000,0.2896,-0.6670,0.0032,0.727
13.328000,0.2170,-0.7237,-0.0114,0.756
13.332000,0.1369,-0.7608,-0.0221,0.773
13.338000,0.1044,-0.7941,-0.1116,0.809
13.342000,0.0533,-0.7625,-0.0981,0.771
13.348000,-0.0051,-0.7030,-0.0350,0.704
13.353000,-0.0544,-0.6910,-0.1521,0.710
13.358000,-0.1078,-0.6607,-0.1587,0.688
13.378000,-0.1438,-0.6242,-0.2581,0.691
13.380000,-0.1722,-0.6127,-0.2618,0.688
13.381000,-0.2016,-0.6320,-0.1705,0.685
13.381000,-0.2067,-0.6381,-0.1821,0.695
13.384000,-0.2071,-0.5943,-0.1463,0.646
13.388000,-0.1616,-0.5694,-0.0589,0.595
13.393000,-0.1359,-0.6019,0.0233,0.617
13.419000,-0.0922,-0.5492,0.0214,0.557
13.421000,-0.0521,-0.4495,0.0732,0.458
13.421000,-0.0466,-0.3784,0.1042,0.395
13.422000,-0.0111,-0.2840,0.0936,0.299
13.422000,0.0255,-0.2766,0.0783,0.289
13.424000,0.0715,-0.2197,0.1073,0.255
13.433000,0.1005,-0.1697,0.1626,0.256
13.435000,0.1043,-0.1095,0.1669,0.225
13.439000,0.1112,-0.0585,0.1417,0.189
13.447000,0.1262,-0.0588,0.1558,0.209
13.449000,0.1492,-0.0669,0.1869,0.248
13.454000,0.1501,-0.0518,0.1598,0.225
13.460000,0.1327,-0.1033,0.1509,0.226
13.464000,0.1364,-0.1352,0.0416,0.197
13.469000,0.1255,-0.1747,0.0179,0.216
13.474000,0.1299,-0.2375,0.0041,0.271
13.489000,0.1302,-0.2605,-0.0635,0.298
13.491000,0.1512,-0.2755,0.0002,0.314
13.491000,0.1236,-0.2852,0.1063,0.329
13.519000,0.1349,-0.3589,0.1252,0.403
13.520000,0.1064,-0.4659,0.1379,0.497
13.521000,0.1413,-0.5595,0.1842,0.606
13.521000,0.1689,-0.6004,0.2274,0.664
13.522000,0.1411,-0.6175,0.0832,0.639
13.522000,0.1739,-0.6960,-0.0428,0.719
13.525000,0.1846,-0.7863,-0.0051,0.808
13.531000,0.2426,-0.8383,0.0115,0.873
13.535000,0.2824,-0.8965,-0.0336,0.940
13.540000,0.3278,-0.9549,-0.1036,1.015
13.547000,0.3145,-1.0023,-0.2014,1.070
13.551000,0.3300,-1.0329,-0.2412,1.111
13.555000,0.3512,-0.9833,-0.2263,1.068
13.560000,0.3745,-0.9973,-0.3065,1.109
13.565000,0.4250,-0.9366,-0.3351,1.082
13.570000,0.4812,-0.7922,-0.2205,0.953
13.575000,0.5416,-0.7189,-0.1264,0.909
13.595000,0.5344,-0.5486,-0.0571,0.768
13.596000,0.5375,-0.4810,-0.0280,0.722
13.598000,0.5510,-0.3846,-0.0010,0.672
13.598000,0.5199,-0.2811,-0.0048,0.591
13.601000,0.4867,-0.1596,0.0720,0.517
13.606000,0.4050,-0.0375,0.0890,0.416
13.611000,0.3321,0.0684,0.0641,0.345
13.638000,0.2907,0.0974,0.0300,0.308
13.639000,0.2053,0.1502,0.0874,0.269
13.640000,0.1476,0.1894,0.0718,0.251
13.640000,0.0975,0.1676,0.0270,0.196
13.642000,0.0752,0.1827,0.0376,0.201
13.643000,0.0413,0.1236,-0.0484,0.139
13.654000,0.0210,0.0429,-0.1282,0.137
13.655000,0.0001,-0.0947,-0.1775,0.201
13.656000,-0.0229,-0.1941,-0.3675,0.416
13.668000,-0.0340,-0.2534,-0.4249,0.496
13.670000,-0.0582,-0.3345,-0.4642,0.575
13.671000,-0.1503,-0.4250,-0.5425,0.705
13.677000,-0.2315,-0.4922,-0.6724,0.865
13.682000,-0.2949,-0.5248,-0.7873,0.991
13.687000,-0.3728,-0.6016,-0.9397,1.176
13.692000,-0.4845,-0.6298,-0.9708,1.255
13.713000,-0.5199,-0.6738,-0.9644,1.286
13.715000,-0.5929,-0.7183,-0.9480,1.329
13.716000,-0.6898,-0.7750,-0.9708,1.421
13.716000,-0.8080,-0.8257,-0.9571,1.500
13.719000,-0.8327,-0.8465,-0.8139,1.440
13.722000,-0.8843,-0.8526,-0.7671,1.448
13.727000,-0.9754,-0.9279,-0.8779,1.607
13.759000,-1.1051,-0.9230,-1.0856,1.803
13.763000,-1.1916,-0.8876,-1.2464,1.939
13.763000,-1.2793,-0.8610,-1.3532,2.052
13.765000,-1.3844,-0.7960,-1.5663,2.237
13.767000,-1.4938,-0.7494,-1.7609,2.428
13.768000,-1.5526,-0.7136,-2.0150,2.642
13.770000,-1.5445,-0.6962,-2.1793,2.760
13.771000,-1.5692,-0.7132,-2.3869,2.944
13.773000,-1.6812,-0.6918,-2.5954,3.169
13.778000,-1.7639,-0.6412,-2.5958,3.203
13.783000,-1.7763,-0.6479,-2.4557,3.099
13.788000,-1.8032,-0.6875,-2.2896,2.994
13.794000,-1.7807,-0.7404,-2.1199,2.866
13.815000,-1.7233,-0.8439,-1.9922,2.766
13.817000,-1.6740,-0.9694,-1.7225,2.590
13.818000,-1.5922,-1.1228,-1.4405,2.423
13.820000,-1.5368,-1.2882,-1.2952,2.387
13.823000,-1.5183,-1.3992,-1.2292,2.403
13.824000,-1.4821,-1.4191,-1.2075,2.381
13.859000,-1.4209,-1.4269,-1.2391,2.364
13.861000,-1.2150,-1.4607,-1.3824,2.350
13.862000,-0.9852,-1.5072,-1.6880,2.468
13.864000,-0.7715,-1.4581,-1.8422,2.473
13.865000,-0.5539,-1.3430,-1.9158,2.404
13.866000,-0.3228,-1.2044,-1.9237,2.293
13.866000,-0.1278,-1.0398,-1.8143,2.095
13.867000,0.0092,-0.9089,-1.7051,1.932
13.869000,0.0977,-0.8321,-1.4288,1.656
13.874000,0.1342,-0.7831,-1.1511,1.399
13.878000,0.2185,-0.7794,-0.9353,1.237
13.883000,0.2472,-0.7689,-0.7886,1.129
13.889000,0.2492,-0.7930,-0.7476,1.118
13.894000,0.3047,-0.7452,-0.7001,1.067
13.908000,0.2901,-0.7574,-0.5801,0.997
13.909000,0.3883,-0.5789,-0.5362,0.879
13.910000,0.4670,-0.5208,-0.4874,0.853
13.936000,0.4451,-0.6147,-0.4029,0.859
13.937000,0.4846,-0.7179,-0.3487,0.934
13.938000,0.5397,-0.8269,-0.3354,1.043
13.938000,0.6084,-1.0309,-0.3258,1.241
13.939000,0.7026,-1.2778,-0.3424,1.498
13.939000,0.8316,-1.4907,-0.4206,1.758
13.945000,0.9448,-1.7046,-0.4263,1.995
13.950000,1.1064,-1.9057,-0.3635,2.233
13.955000,1.2200,-2.0560,-0.3449,2.416
13.960000,1.3018,-2.2382,-0.3551,2.614
13.965000,1.3788,-2.3466,-0.4049,2.752
13.970000,1.4416,-2.4046,-0.5301,2.853
13.975000,1.4186,-2.3531,-0.4982,2.792
13.981000,1.4139,-2.2645,-0.4182,2.702
13.985000,1.3703,-2.1326,-0.3328,2.557
13.990000,1.3511,-1.9395,-0.2446,2.376
13.997000,1.3882,-1.7402,-0.1671,2.232
14.001000,1.4209,-1.5829,-0.1925,2.136
14.005000,1.5175,-1.3823,-0.1558,2.059
14.010000,1.5833,-1.2144,-0.2068,2.006
14.016000,1.7152,-0.9920,-0.3608,2.014
14.021000,1.8455,-0.8186,-0.3451,2.048
14.026000,1.9371,-0.7545,-0.2385,2.092
14.044000,2.0625,-0.7744,-0.1294,2.207
14.046000,2.2000,-0.8207,-0.0594,2.349
14.047000,2.2780,-0.8843,-0.0428,2.444
14.049000,2.2852,-0.8270,0.0308,2.430
14.087000,2.2670,-0.7042,0.1121,2.376
14.089000,2.2456,-0.5677,0.2537,2.330
14.090000,2.1928,-0.4172,0.4433,2.276
14.091000,2.1119,-0.2226,0.6234,2.213
14.092000,1.9749,-0.0851,0.7554,2.116
14.093000,1.8512,0.0147,0.8084,2.020
14.094000,1.6838,0.1366,0.8305,1.882
14.095000,1.5176,0.2830,0.8282,1.752
14.097000,1.3790,0.3691,0.7505,1.613
14.097000,1.2578,0.4594,0.7044,1.513
14.102000,1.1148,0.5761,0.5549,1.372
14.107000,1.0635,0.5693,0.4693,1.294
14.112000,0.9584,0.4755,0.4082,1.145
14.119000,0.8662,0.4439,0.3944,1.050
14.122000,0.8078,0.3169,0.3655,0.942
14.127000,0.6750,0.2418,0.3685,0.806
14.142000,0.5854,0.1652,0.3484,0.701
14.143000,0.4913,0.1417,0.2684,0.577
14.143000,0.3321,0.1620,0.1883,0.415
14.177000,0.1999,0.1932,0.1084,0.298
14.178000,0.0422,0.2477,-0.0370,0.254
14.179000,-0.1078,0.3430,-0.1989,0.411
14.179000,-0.2983,0.4802,-0.4214,0.705
14.180000,-0.5103,0.6638,-0.6089,1.035
14.180000,-0.6807,0.8572,-0.8273,1.372
14.181000,-0.8684,1.0486,-0.9692,1.671
14.184000,-1.0385,1.1970,-1.1450,1.955
14.188000,-1.2275,1.3098,-1.3857,2.268
14.193000,-1.3431,1.3676,-1.6626,2.537
14.198000,-1.2833,1.3186,-1.7342,2.528
14.203000,-1.1559,1.1565,-1.7169,2.371
14.208000,-1.0426,0.9607,-1.8726,2.349
14.213000,-0.7586,0.6490,-1.9190,2.163
14.219000,-0.4926,0.3158,-2.0058,2.089
14.223000,-0.1204,-0.0849,-2.0322,2.038
14.228000,0.4061,-0.5091,-1.9061,2.014
14.242000,0.8615,-0.8277,-1.8167,2.174
14.243000,1.2280,-1.0038,-1.6507,2.289
14.244000,1.5608,-1.0283,-1.4446,2.362
14.272000,1.8149,-0.9031,-1.2674,2.391
14.273000,1.9521,-0.8812,-1.1579,2.435
14.274000,2.0004,-0.9464,-1.1686,2.503
14.275000,2.0258,-1.0042,-1.2590,2.588
14.276000,1.9769,-1.0396,-1.4170,2.645
14.277000,1.8630,-1.0074,-1.5553,2.628
14.279000,1.7669,-0.9945,-1.6556,2.618
14.284000,1.5456,-1.0790,-1.6674,2.517
14.289000,1.3031,-1.1631,-1.6445,2.399
14.294000,1.1278,-1.2284,-1.5930,2.306
14.299000,0.8988,-1.2378,-1.5783,2.198
14.303000,0.7292,-1.2380,-1.5309,2.100
14.309000,0.5825,-1.2923,-1.4791,2.049
14.314000,0.4255,-1.2213,-1.4457,1.940
14.319000,0.2556,-1.0730,-1.2846,1.693
14.324000,0.0968,-0.9385,-1.0908,1.442
14.329000,-0.0770,-0.7722,-0.9134,1.199
14.334000,-0.2337,-0.6603,-0.8692,1.116
14.339000,-0.3047,-0.5993,-0.9494,1.163
14.344000,-0.3422,-0.5768,-0.9129,1.133
14.360000,-0.3636,-0.5608,-0.8212,1.059
14.361000,-0.3186,-0.5986,-0.7927,1.043
14.362000,-0.3972,-0.5478,-0.9111,1.135
14.404000,-0.4926,-0.4400,-0.9509,1.158
14.405000,-0.5559,-0.2795,-0.8261,1.034
14.406000,-0.5599,-0.0773,-0.5033,0.757
14.407000,-0.5209,-0.0055,-0.1410,0.540
14.407000,-0.5146,-0.0530,0.1658,0.543
14.408000,-0.4486,-0.2052,0.3368,0.597
14.408000,-0.2842,-0.4114,0.5237,0.724
14.409000,-0.1596,-0.6112,0.6174,0.883
14.409000,-0.0109,-0.7839,0.5425,0.953
14.411000,0.0002,-0.9028,0.4202,0.996
14.419000,-0.0373,-0.9486,0.2932,0.994
14.420000,-0.1175,-1.0325,0.1963,1.057
14.425000,-0.2515,-0.9428,0.0257,0.976
14.433000,-0.4253,-0.8650,-0.1283,0.972
14.436000,-0.5715,-0.7204,-0.2378,0.950
14.441000,-0.6962,-0.6219,-0.2741,0.973
14.445000,-0.8224,-0.4863,-0.3235,1.009
14.450000,-0.9224,-0.2783,-0.3370,1.021
14.455000,-0.9372,-0.1934,-0.3418,1.016
14.460000,-0.7866,-0.2253,-0.2604,0.859
14.480000,-0.6934,-0.1049,-0.2391,0.741
14.483000,-0.5832,-0.0031,-0.2682,0.642
14.484000,-0.4302,0.0587,-0.2567,0.504
14.486000,-0.2192,0.0203,-0.2221,0.313
14.486000,0.0245,-0.1171,-0.0522,0.131
14.491000,0.2118,-0.2729,0.2131,0.406
14.495000,0.3842,-0.4133,0.5109,0.761
14.522000,0.4790,-0.4960,0.7150,0.993
14.523000,0.5795,-0.5947,0.8887,1.216
14.525000,0.6837,-0.5612,0.9825,1.322
14.525000,0.7669,-0.4983,0.9901,1.348
14.526000,0.7945,-0.4215,0.8616,1.245
14.526000,0.8343,-0.2190,0.7691,1.156
14.534000,0.9018,-0.0311,0.5802,1.073
14.536000,0.9008,0.1253,0.4026,0.995
14.542000,0.8886,0.2617,0.2570,0.961
14.547000,0.9283,0.4609,0.1493,1.047
14.551000,1.0123,0.5764,0.0776,1.167
14.557000,1.0005,0.5988,0.0045,1.166
14.562000,0.9904,0.6020,0.0650,1.161
14.577000,0.9465,0.6257,0.1053,1.139
14.578000,0.9200,0.6913,0.1447,1.160
14.578000,0.9125,0.7892,0.1651,1.218
14.612000,0.8998,0.8246,0.1270,1.227
14.613000,0.9080,0.8404,0.1109,1.242
14.614000,0.9143,0.8536,0.1107,1.256
14.614000,0.9318,0.8828,0.1576,1.293
14.615000,0.9088,0.8779,0.1632,1.274
14.616000,0.9211,0.8908,0.1990,1.297
14.616000,0.9159,0.8888,0.2663,1.304
14.617000,0.9411,0.8828,0.3721,1.343
14.623000,0.9048,0.8312,0.4541,1.310
14.628000,0.8378,0.8456,0.4397,1.269
14.633000,0.7879,0.8648,0.5277,1.283
14.638000,0.7806,0.9013,0.6099,1.339
14.643000,0.7080,0.8973,0.5909,1.287
14.649000,0.6731,0.9021,0.5340,1.246
14.653000,0.6359,0.9623,0.5691,1.286
14.658000,0.5889,0.9630,0.5396,1.251
14.663000,0.5843,0.9384,0.4901,1.209
14.668000,0.5710,0.9215,0.4600,1.178
14.673000,0.5581,0.9143,0.4831,1.175
14.678000,0.5507,0.8844,0.5148,1.162
14.698000,0.5773,0.8385,0.5096,1.138
14.699000,0.6095,0.7159,0.4890,1.060
14.700000,0.6780,0.6208,0.5358,1.064
14.701000,0.6615,0.5714,0.6015,1.061
14.704000,0.6750,0.5035,0.7924,1.156
14.709000,0.6748,0.3718,0.7752,1.093
14.714000,0.6615,0.1562,0.2270,0.717
14.745000,0.5873,0.0556,0.1086,0.600
14.746000,0.4931,0.0435,0.3023,0.580
14.747000,0.3198,0.0996,0.3524,0.486
14.747000,0.2147,0.0799,0.2709,0.355
14.748000,0.1094,0.0910,0.2148,0.258
14.749000,0.0121,0.1467,0.2525,0.292
14.750000,-0.0823,0.1710,0.3766,0.422
14.755000,-0.1532,0.1834,0.5068,0.560
14.760000,-0.2264,0.1833,0.5996,0.667
14.767000,-0.2445,0.1359,0.6617,0.718
14.770000,-0.2825,0.0581,0.6835,0.742
14.775000,-0.3247,-0.0240,0.6313,0.710
14.780000,-0.3445,-0.1572,0.5789,0.692
14.785000,-0.3903,-0.2553,0.4207,0.628
14.791000,-0.4313,-0.2813,0.2996,0.596
14.796000,-0.4439,-0.3394,0.2443,0.610
14.815000,-0.4838,-0.4237,0.2711,0.698
14.817000,-0.5540,-0.5072,0.2464,0.790
14.818000,-0.6333,-0.5217,0.1167,0.829
14.819000,-0.7280,-0.5347,-0.0108,0.903
14.821000,-0.8106,-0.5553,-0.1948,1.002
14.825000,-0.8673,-0.5564,-0.2983,1.073
14.830000,-0.9557,-0.5457,-0.3257,1.148
14.854000,-1.0483,-0.4871,-0.3599,1.211
14.855000,-1.1677,-0.3826,-0.3997,1.292
14.856000,-1.2478,-0.2875,-0.4371,1.353
14.857000,-1.2821,-0.2551,-0.4622,1.387
14.858000,-1.2469,-0.2490,-0.4843,1.361
14.861000,-1.1206,-0.1526,-0.4557,1.219
14.868000,-0.9586,-0.1458,-0.4658,1.076
14.870000,-0.7885,-0.1810,-0.4093,0.907
14.875000,-0.6478,-0.2153,-0.3706,0.777
14.880000,-0.5162,-0.3036,-0.3122,0.675
14.886000,-0.3363,-0.3963,-0.2032,0.558
14.890000,-0.2243,-0.4526,-0.0924,0.513
14.896000,-0.1775,-0.5344,0.0354,0.564
14.916000,-0.2595,-0.6034,0.0564,0.659
14.917000,-0.3058,-0.7110,0.1629,0.791
14.918000,-0.3255,-0.8152,0.3112,0.931
14.919000,-0.3841,-0.9366,0.3572,1.074
14.923000,-0.4540,-1.0133,0.3861,1.176
14.926000,-0.4846,-1.0273,0.5000,1.241
14.931000,-0.4936,-1.0974,0.5657,1.330
14.957000,-0.5320,-1.2269,0.5706,1.454
14.959000,-0.6035,-1.3796,0.4217,1.564
14.960000,-0.6497,-1.4596,0.3410,1.634
14.961000,-0.6994,-1.4918,0.1979,1.659
14.962000,-0.7227,-1.4985,0.0596,1.665
14.962000,-0.7569,-1.5504,-0.0988,1.728
14.970000,-0.7833,-1.4791,-0.1846,1.684
14.972000,-0.7717,-1.4524,-0.2338,1.661
14.977000,-0.7498,-1.4333,-0.2560,1.638
14.983000,-0.7140,-1.3274,-0.1976,1.520
14.987000,-0.7107,-1.2367,-0.1833,1.438
14.991000,-0.6940,-1.1394,-0.1477,1.342
14.997000,-0.6855,-0.9806,-0.1270,1.203
15.002000,-0.6863,-0.8822,-0.0853,1.121
15.007000,-0.6855,-0.7703,-0.0205,1.031
15.012000,-0.6722,-0.6279,0.0086,0.920
15.029000,-0.6574,-0.4776,0.0356,0.813
15.030000,-0.6707,-0.3473,0.0689,0.758
15.031000,-0.6334,-0.1914,0.1240,0.673
15.067000,-0.6474,-0.0542,0.1857,0.676
15.068000,-0.6023,0.0475,0.2129,0.641
15.069000,-0.5674,0.0913,0.2830,0.641
15.069000,-0.5105,0.1072,0.3266,0.615
15.070000,-0.4568,0.1078,0.2854,0.549
15.070000,-0.3691,0.1241,0.3576,0.529
15.071000,-0.2844,0.0522,0.3550,0.458
15.071000,-0.2462,0.0388,0.1687,0.301
15.072000,-0.2151,0.0101,0.1660,0.272
15.078000,-0.1350,-0.1134,0.2083,0.273
15.083000,-0.0595,-0.1905,0.1968,0.280
15.088000,0.0351,-0.2857,0.1500,0.325
15.092000,0.1211,-0.4072,0.0731,0.431
15.098000,0.1636,-0.5152,-0.0048,0.541
15.104000,0.2489,-0.6268,-0.0219,0.675
15.108000,0.3137,-0.6701,0.1926,0.765
15.113000,0.4218,-0.7919,0.1725,0.914
15.130000,0.5514,-1.0459,-0.3555,1.235
15.132000,0.6308,-1.1425,-0.7269,1.494
15.133000,0.6118,-1.1720,-0.7032,1.497
15.141000,0.7029,-1.4911,-0.7543,1.813
15.141000,0.6147,-1.6321,-0.8416,1.936
15.143000,0.5049,-1.6089,-0.8068,1.869
15.172000,0.4205,-1.5809,-0.7962,1.819
15.173000,0.3165,-1.5295,-0.7545,1.735
15.174000,0.2239,-1.4452,-0.7286,1.634
15.175000,0.1142,-1.3666,-0.6552,1.520
15.175000,0.0054,-1.2837,-0.5896,1.413
15.176000,-0.0965,-1.1395,-0.5161,1.255
15.179000,-0.2262,-1.0556,-0.4347,1.164
15.184000,-0.3287,-0.9162,-0.3872,1.047
15.189000,-0.4221,-0.7761,-0.3252,0.941
15.194000,-0.5268,-0.6635,-0.2740,0.890
15.199000,-0.5447,-0.5649,-0.1724,0.803
15.204000,-0.6158,-0.4622,-0.0814,0.774
15.209000,-0.6672,-0.3663,-0.0596,0.764
15.214000,-0.6713,-0.2952,-0.0759,0.737
15.227000,-0.6521,-0.2011,-0.0825,0.687
15.228000,-0.6526,-0.1365,-0.1080,0.675
15.229000,-0.5984,-0.1290,-0.1172,0.623
15.263000,-0.5768,-0.1114,-0.1268,0.601
15.264000,-0.5651,-0.0673,-0.0833,0.575
15.264000,-0.4712,-0.0491,-0.0955,0.483
15.265000,-0.4252,-0.0913,-0.0607,0.439
15.265000,-0.3411,-0.1150,0.0241,0.361
15.266000,-0.2760,-0.0914,0.0883,0.304
15.266000,-0.2563,-0.0769,0.1688,0.316
15.270000,-0.2246,-0.0235,0.2490,0.336
15.275000,-0.1593,0.0087,0.2700,0.314
15.280000,-0.1333,0.0640,0.3348,0.366
15.286000,-0.0845,0.1270,0.4422,0.468
15.290000,0.0147,0.1606,0.4858,0.512
15.295000,0.0541,0.1948,0.4918,0.532
15.301000,0.1330,0.2284,0.4989,0.565
15.305000,0.1615,0.2795,0.5515,0.639
15.310000,0.1768,0.3290,0.5936,0.701
15.315000,0.1800,0.4259,0.6490,0.797
15.320000,0.1688,0.4204,0.6041,0.755
15.325000,0.1599,0.4778,0.5846,0.772
15.331000,0.0936,0.5284,0.5751,0.787
15.345000,0.0905,0.5338,0.5505,0.772
15.346000,0.1003,0.4487,0.5219,0.696
15.346000,-0.0301,0.5162,0.5371,0.746
15.378000,-0.1354,0.5457,0.5003,0.753
15.379000,-0.2288,0.5190,0.3839,0.685
15.380000,-0.2626,0.4898,0.3377,0.650
15.380000,-0.3099,0.4965,0.2723,0.645
15.381000,-0.3312,0.4667,0.2474,0.624
15.381000,-0.3590,0.4129,0.1914,0.580
15.382000,-0.3596,0.3836,0.1558,0.548
15.390000,-0.3681,0.3539,0.2092,0.552
15.391000,-0.3724,0.3344,0.2376,0.554
15.396000,-0.3688,0.2558,0.2650,0.521
15.403000,-0.3418,0.2413,0.3009,0.515
15.406000,-0.2712,0.1605,0.3298,0.456
15.411000,-0.2286,0.1007,0.3705,0.447
15.418000,-0.1626,0.1053,0.3500,0.400
15.421000,-0.1389,0.0379,0.3999,0.425
15.426000,-0.1023,0.0350,0.4541,0.467
15.432000,-0.0985,-0.0050,0.4387,0.450
15.436000,-0.0914,-0.0354,0.4420,0.453
15.442000,-0.0534,-0.0656,0.4290,0.437
15.447000,-0.0371,-0.0766,0.4321,0.440
15.466000,-0.0175,-0.0958,0.4045,0.416
15.468000,-0.0016,-0.0994,0.3427,0.357
15.469000,-0.0110,-0.1457,0.2741,0.311
15.470000,-0.0264,-0.1668,0.2189,0.276
15.474000,-0.0466,-0.1292,0.1734,0.221
15.477000,-0.0573,-0.1167,0.0861,0.156
15.513000,-0.0357,-0.1042,0.0373,0.116
15.514000,-0.0081,-0.0963,0.0159,0.098
15.515000,-0.0106,-0.1054,-0.0841,0.135
15.516000,-0.0251,-0.1217,-0.1398,0.187
15.517000,-0.0013,-0.1234,-0.1463,0.191
15.518000,-0.0039,-0.0832,-0.1503,0.172
15.520000,0.0139,-0.0835,-0.1664,0.187
15.520000,0.0496,-0.1089,-0.1718,0.209
15.523000,0.0146,-0.1318,-0.1589,0.207
15.528000,0.0322,-0.1534,-0.1329,0.206
15.535000,0.0462,-0.1560,-0.1059,0.194
15.539000,0.0687,-0.1680,-0.0780,0.198
15.544000,0.0518,-0.2086,-0.0696,0.226
15.549000,0.0470,-0.2049,-0.1153,0.240
15.554000,0.0173,-0.1961,-0.1196,0.230
15.559000,-0.0075,-0.2470,-0.1707,0.300
15.564000,-0.0154,-0.2402,-0.1731,0.296
15.582000,-0.0495,-0.2452,-0.2354,0.343
15.583000,-0.0703,-0.1927,-0.2932,0.358
15.584000,-0.0505,-0.1954,-0.3331,0.389
15.585000,-0.1024,-0.2307,-0.3693,0.447
15.589000,-0.1541,-0.2073,-0.3783,0.458
15.594000,-0.1531,-0.2149,-0.4399,0.513
15.599000,-0.1378,-0.1820,-0.4620,0.515
15.624000,-0.1525,-0.1744,-0.4567,0.512
15.625000,-0.1325,-0.1958,-0.4930,0.547
15.626000,-0.0756,-0.1581,-0.4777,0.509
15.627000,-0.0199,-0.1711,-0.3754,0.413
15.628000,0.0538,-0.1981,-0.3348,0.393
15.629000,0.1168,-0.2316,-0.3148,0.408
15.639000,0.1248,-0.2739,-0.2294,0.378
15.641000,0.1676,-0.3054,-0.1433,0.377
15.645000,0.1722,-0.3187,-0.0767,0.370
15.654000,0.1949,-0.3149,-0.0668,0.376
15.656000,0.2466,-0.2919,-0.0886,0.392
15.660000,0.2158,-0.3342,-0.1873,0.440
15.665000,0.2259,-0.3271,-0.2633,0.477
15.681000,0.2442,-0.3367,-0.2959,0.510
15.683000,0.2529,-0.3462,-0.2495,0.496
15.683000,0.2639,-0.3257,-0.2510,0.489
15.721000,0.3098,-0.3219,-0.2158,0.496
15.723000,0.3701,-0.3465,-0.2193,0.552
15.723000,0.3852,-0.3592,-0.2100,0.567
15.724000,0.4291,-0.3623,-0.2038,0.597
15.725000,0.5117,-0.3508,-0.2079,0.654
15.726000,0.5407,-0.3668,-0.1997,0.683
15.726000,0.5221,-0.3492,-0.2256,0.667
15.727000,0.5636,-0.2955,-0.3024,0.705
15.727000,0.5515,-0.3267,-0.3496,0.730
15.730000,0.5299,-0.3017,-0.3479,0.702
15.737000,0.4869,-0.2979,-0.3704,0.680
15.740000,0.4596,-0.2486,-0.3834,0.648
15.746000,0.4396,-0.2327,-0.3928,0.634
15.755000,0.4302,-0.1857,-0.4118,0.624
15.756000,0.3970,-0.1340,-0.3827,0.567
15.761000,0.3697,-0.0884,-0.3597,0.523
15.766000,0.3484,-0.0803,-0.3737,0.517
15.771000,0.3486,-0.1057,-0.3099,0.478
15.776000,0.3418,-0.0642,-0.2584,0.433
15.781000,0.3673,-0.0972,-0.2359,0.447
15.807000,0.3702,-0.1135,-0.2077,0.439
15.809000,0.4008,-0.1191,-0.1716,0.452
15.810000,0.3598,-0.1678,-0.1838,0.437
15.811000,0.3573,-0.1723,-0.1772,0.434
15.812000,0.3764,-0.1802,-0.1709,0.451
15.813000,0.3466,-0.1871,-0.1818,0.434
15.816000,0.3027,-0.1856,-0.1977,0.406
15.861000,0.2912,-0.2020,-0.1635,0.390
15.862000,0.2834,-0.1968,-0.1799,0.389
15.862000,0.2326,-0.1690,-0.1653,0.332
15.863000,0.1951,-0.1687,-0.1878,0.319
15.863000,0.1803,-0.1710,-0.1913,0.314
15.864000,0.1418,-0.1505,-0.1805,0.274
15.865000,0.0931,-0.1578,-0.1973,0.269
15.865000,0.0686,-0.1651,-0.1321,0.222
15.866000,0.0479,-0.1535,-0.1458,0.217
15.866000,0.0321,-0.1372,-0.1820,0.230
15.874000,0.0474,-0.1198,-0.1491,0.197
15.878000,0.0187,-0.0993,-0.1617,0.191
15.882000,-0.0063,-0.1013,-0.1778,0.205
15.898000,-0.0369,-0.0903,-0.1759,0.201
15.899000,-0.0270,-0.0735,-0.1896,0.205
15.900000,-0.0480,-0.1115,-0.1271,0.176
15.904000,-0.0427,-0.0624,-0.0604,0.097
15.906000,-0.0338,-0.0421,-0.0346,0.064
15.912000,-0.0464,-0.0363,-0.0554,0.081
15.917000,-0.0260,-0.0449,-0.0691,0.086
15.937000,-0.0487,-0.0174,-0.0730,0.089
15.938000,-0.0511,0.0005,-0.1008,0.113
15.939000,-0.0368,-0.0175,-0.0436,0.060
15.939000,-0.0344,-0.0211,-0.0332,0.052
15.942000,-0.0642,-0.0044,-0.0396,0.076
15.948000,-0.0773,0.0266,-0.0066,0.082
15.953000,-0.0878,-0.0104,0.0093,0.089
15.957000,-0.0684,-0.0126,0.0049,0.070
15.962000,-0.0370,0.0284,0.0254,0.053
15.971000,-0.0701,0.0216,0.0590,0.094
