time,ax,ay,az,aT
0.005000,-0.2261,0.1136,0.2411,0.350
0.005000,-0.2643,0.1197,0.3449,0.451
0.006000,-0.2583,0.1336,0.4943,0.574
0.006000,-0.2429,0.1743,0.7074,0.768
0.007000,-0.2471,0.1473,0.8644,0.911
0.007000,-0.1738,0.1409,0.9907,1.016
0.008000,-0.1644,0.1098,1.0743,1.092
0.008000,-0.1198,-0.0006,1.0850,1.092
0.008000,-0.0758,-0.0368,0.9269,0.931
0.011000,-0.0331,-0.0499,0.6812,0.684
0.017000,0.0852,-0.1040,0.4291,0.450
0.029000,0.1740,-0.1797,0.2169,0.331
0.030000,0.2064,-0.1762,-0.0250,0.272
0.043000,0.1461,-0.1438,-0.1973,0.285
0.044000,0.1033,-0.1433,-0.2561,0.311
0.044000,0.0166,-0.1425,-0.3474,0.376
0.047000,-0.0007,-0.1805,-0.4259,0.463
0.062000,-0.0158,-0.1247,-0.4570,0.474
0.063000,0.0345,-0.0838,-0.4469,0.456
0.064000,0.0086,-0.0635,-0.4197,0.425
0.074000,-0.0039,-0.0522,-0.4376,0.441
0.076000,-0.0090,-0.0506,-0.4073,0.410
0.077000,-0.0329,-0.0539,-0.3960,0.401
0.086000,-0.0215,-0.0791,-0.3556,0.365
0.088000,0.0239,-0.1022,-0.2264,0.250
0.093000,0.0126,-0.0697,-0.1385,0.156
0.098000,-0.0123,-0.0656,-0.0798,0.104
0.103000,-0.0638,-0.0205,-0.0537,0.086
0.108000,-0.1181,-0.0065,0.0213,0.120
0.113000,-0.1082,-0.0045,0.1822,0.212
0.124000,-0.0665,-0.0364,0.2727,0.283
0.125000,-0.0468,-0.0328,0.3492,0.354
0.128000,-0.0362,-0.0692,0.3925,0.400
0.140000,-0.0864,-0.0738,0.3678,0.385
0.141000,-0.1194,-0.0416,0.2788,0.306
0.144000,-0.1511,-0.0141,0.1874,0.241
0.151000,-0.2649,-0.0698,0.1303,0.303
0.154000,-0.3554,-0.1024,0.2187,0.430
0.158000,-0.2930,0.0332,0.2561,0.391
0.164000,-0.0732,0.1393,0.1351,0.207
0.169000,0.0101,0.1549,-0.0257,0.157
0.174000,-0.0959,0.0840,-0.1056,0.166
0.179000,-0.1380,0.0857,-0.0689,0.176
0.183000,-0.1643,0.0963,0.0882,0.210
0.189000,-0.2026,0.0927,0.2606,0.343
0.194000,-0.1980,0.1426,0.4223,0.488
0.200000,-0.1915,0.1764,0.5173,0.579
0.204000,-0.1912,0.1711,0.4908,0.554
0.209000,-0.1827,0.1747,0.4543,0.520
0.214000,-0.1238,0.1536,0.3181,0.374
0.219000,-0.0342,0.1542,0.2224,0.273
0.224000,0.0016,0.1536,0.1614,0.223
0.229000,0.0665,0.1101,0.0680,0.146
0.244000,0.1186,0.0909,0.0138,0.150
0.246000,0.1423,0.0676,0.0021,0.158
0.246000,0.1828,0.0164,0.0315,0.186
0.267000,0.1813,-0.0040,0.0516,0.188
0.269000,0.1268,0.0184,0.0851,0.154
0.270000,0.0646,0.0668,0.1009,0.137
0.271000,0.0180,0.1234,0.0988,0.159
0.272000,-0.0276,0.1262,0.1075,0.168
0.275000,-0.0112,0.1134,0.1280,0.171
0.281000,-0.0047,0.0900,0.1509,0.176
0.285000,0.0145,0.0929,0.1343,0.164
0.290000,-0.0023,0.0239,0.1309,0.133
0.296000,0.0251,-0.0174,0.0904,0.095
0.301000,0.0592,-0.0154,0.1085,0.125
0.305000,0.0870,-0.0409,0.0499,0.108
0.310000,0.1239,-0.0300,-0.0138,0.128
0.317000,0.1199,-0.0044,-0.1255,0.174
0.321000,0.1101,-0.0023,-0.1765,0.208
0.326000,0.0852,0.0085,-0.1583,0.180
0.331000,0.0602,0.0419,-0.0527,0.090
0.335000,0.0337,0.0235,0.0699,0.081
0.341000,0.0093,0.0093,0.1426,0.143
0.346000,0.0061,-0.0071,0.1981,0.198
0.361000,0.0145,-0.0472,0.2520,0.257
0.362000,0.0033,-0.0488,0.2613,0.266
0.363000,-0.0324,-0.0431,0.1877,0.195
0.386000,-0.1033,-0.0108,0.1245,0.162
0.387000,-0.1698,0.0327,0.0429,0.178
0.388000,-0.2476,0.0374,-0.0586,0.257
0.389000,-0.3329,0.0789,-0.1620,0.379
0.390000,-0.3529,0.1200,-0.1789,0.413
0.392000,-0.4551,0.1692,-0.1933,0.523
0.396000,-0.5262,0.1896,-0.2841,0.627
0.402000,-0.5377,0.1468,-0.2817,0.624
0.406000,-0.5439,0.0748,-0.2176,0.591
0.411000,-0.5451,-0.0192,-0.2582,0.603
0.420000,-0.5069,-0.0392,-0.3043,0.593
0.428000,-0.4891,0.0137,-0.3609,0.608
0.429000,-0.4630,0.0116,-0.3552,0.584
0.431000,-0.4535,-0.0465,-0.3051,0.549
0.437000,-0.4255,-0.0676,-0.2561,0.501
0.442000,-0.4689,-0.1273,-0.1361,0.505
0.447000,-0.5475,-0.1217,-0.0968,0.569
0.460000,-0.5779,-0.1108,-0.1011,0.597
0.461000,-0.5836,-0.1080,-0.2049,0.628
0.468000,-0.5906,-0.1046,-0.2564,0.652
0.469000,-0.5994,-0.1416,-0.2985,0.684
0.472000,-0.6227,-0.1413,-0.3287,0.718
0.477000,-0.6874,-0.1553,-0.3384,0.782
0.482000,-0.7659,-0.1436,-0.2783,0.827
0.491000,-0.8282,-0.1491,-0.2824,0.888
0.494000,-0.8729,-0.2006,-0.2633,0.934
0.497000,-0.8761,-0.2742,-0.2388,0.949
0.503000,-0.9277,-0.3090,-0.1073,0.984
0.507000,-1.0076,-0.2909,-0.0433,1.050
0.512000,-1.0476,-0.3086,0.0778,1.095
0.517000,-1.1099,-0.3637,0.1558,1.178
0.522000,-1.0882,-0.3678,0.1657,1.161
0.527000,-1.0850,-0.3652,0.1603,1.156
0.533000,-1.0930,-0.3429,0.2677,1.176
0.537000,-1.1471,-0.3391,0.2940,1.232
0.542000,-1.2134,-0.3775,0.3239,1.311
0.547000,-1.2442,-0.4459,0.2941,1.354
0.553000,-1.2691,-0.5116,0.2328,1.388
0.558000,-1.2596,-0.5669,0.1445,1.389
0.563000,-1.2435,-0.5731,0.0600,1.371
0.578000,-1.2150,-0.5227,-0.0127,1.323
0.580000,-1.2027,-0.5066,-0.1144,1.310
0.581000,-1.1793,-0.5770,-0.2369,1.334
0.603000,-1.2165,-0.5183,-0.4139,1.386
0.605000,-1.2580,-0.4500,-0.4950,1.425
0.607000,-1.4004,-0.3779,-0.5892,1.566
0.608000,-1.5385,-0.3119,-0.5540,1.665
0.610000,-1.6820,-0.1694,-0.5437,1.776
0.612000,-1.7979,-0.0572,-0.5475,1.880
0.621000,-1.8764,0.0434,-0.5267,1.949
0.625000,-1.9057,0.0501,-0.5077,1.973
0.633000,-1.9442,0.0605,-0.4842,2.005
0.641000,-1.9311,0.0379,-0.4587,1.985
0.645000,-1.8869,-0.0010,-0.3870,1.926
0.647000,-1.8012,-0.0836,-0.3745,1.842
0.648000,-1.7158,-0.1035,-0.3065,1.746
0.650000,-1.6585,-0.1058,-0.3169,1.692
0.654000,-1.5919,-0.2015,-0.3511,1.643
0.659000,-1.4709,-0.2552,-0.3457,1.532
0.664000,-1.4100,-0.3043,-0.2934,1.472
0.670000,-1.3838,-0.3537,-0.2743,1.454
0.674000,-1.3776,-0.3558,-0.2952,1.453
0.679000,-1.3971,-0.3527,-0.2913,1.470
0.691000,-1.3608,-0.3098,-0.3678,1.443
0.693000,-1.3629,-0.2658,-0.4885,1.472
0.694000,-1.4028,-0.2507,-0.5538,1.529
0.706000,-1.4239,-0.2238,-0.6236,1.570
0.708000,-1.3732,-0.2498,-0.5915,1.516
0.710000,-1.3107,-0.3408,-0.4716,1.434
0.714000,-1.2173,-0.4024,-0.4277,1.352
0.719000,-1.1308,-0.5052,-0.3918,1.299
0.725000,-0.9987,-0.5626,-0.4575,1.234
0.729000,-0.8619,-0.5982,-0.5123,1.168
0.734000,-0.7287,-0.6404,-0.5257,1.103
0.739000,-0.6384,-0.6912,-0.5997,1.116
0.745000,-0.5842,-0.6705,-0.5786,1.061
0.751000,-0.5636,-0.6976,-0.5837,1.070
0.755000,-0.5646,-0.6312,-0.5528,1.011
0.760000,-0.5670,-0.6654,-0.4883,1.001
0.765000,-0.5671,-0.7066,-0.3961,0.989
0.770000,-0.5137,-0.7227,-0.2943,0.934
0.776000,-0.4822,-0.6457,-0.2066,0.832
0.781000,-0.4571,-0.5585,-0.1183,0.731
0.796000,-0.4862,-0.5676,-0.0415,0.749
0.797000,-0.5157,-0.5333,-0.0092,0.742
0.798000,-0.4703,-0.4580,0.0167,0.657
0.818000,-0.5032,-0.4006,0.0151,0.643
0.820000,-0.4660,-0.3945,0.0062,0.611
0.821000,-0.4281,-0.3777,0.0643,0.574
0.822000,-0.3666,-0.3548,0.1426,0.530
0.823000,-0.2987,-0.4000,0.1442,0.520
0.826000,-0.2481,-0.4403,0.1303,0.522
0.831000,-0.1826,-0.4601,0.0864,0.502
0.836000,-0.0602,-0.4939,-0.0305,0.498
0.841000,0.0847,-0.4731,-0.0964,0.490
0.847000,0.1674,-0.5054,-0.1329,0.549
0.851000,0.2552,-0.5380,-0.1877,0.624
0.857000,0.3580,-0.5231,-0.1856,0.660
0.862000,0.4520,-0.5255,-0.0991,0.700
0.869000,0.5399,-0.5295,-0.0453,0.758
0.872000,0.5788,-0.5307,0.0046,0.785
0.877000,0.5818,-0.5149,0.0999,0.783
0.882000,0.6089,-0.5135,0.2466,0.834
0.887000,0.6860,-0.5158,0.3719,0.935
0.892000,0.7246,-0.4705,0.4901,0.993
0.897000,0.7519,-0.4660,0.5880,1.062
0.919000,0.7438,-0.4867,0.6979,1.130
0.921000,0.8117,-0.4825,0.7936,1.233
0.922000,0.8574,-0.4391,0.8620,1.293
0.923000,0.8973,-0.4311,0.9392,1.369
0.925000,0.9027,-0.4582,1.0395,1.451
0.929000,0.9299,-0.4727,1.0994,1.516
0.936000,1.0109,-0.4856,1.1970,1.640
0.946000,1.0855,-0.4981,1.3213,1.781
0.948000,1.1463,-0.5218,1.3646,1.857
0.950000,1.1798,-0.5437,1.4238,1.927
0.962000,1.2111,-0.5161,1.3603,1.893
0.964000,1.2458,-0.4256,1.2864,1.841
0.965000,1.3100,-0.4190,1.1839,1.815
0.976000,1.3366,-0.4110,1.0898,1.773
0.978000,1.3735,-0.3727,0.9416,1.706
0.980000,1.4328,-0.3613,0.7885,1.675
0.982000,1.4923,-0.3033,0.6910,1.672
0.987000,1.5328,-0.2767,0.6276,1.679
0.993000,1.5472,-0.2361,0.5530,1.660
0.998000,1.5971,-0.2342,0.4768,1.683
1.009000,1.6515,-0.2125,0.4878,1.735
1.010000,1.6595,-0.2146,0.4604,1.735
1.017000,1.6891,-0.2559,0.4795,1.774
1.018000,1.7283,-0.2552,0.4976,1.817
1.025000,1.7603,-0.2234,0.4475,1.830
1.028000,1.8174,-0.1605,0.4262,1.874
1.034000,1.9253,-0.1188,0.4932,1.991
1.038000,1.9727,-0.1128,0.6176,2.070
1.044000,2.0243,-0.1694,0.7278,2.158
1.048000,2.0941,-0.2326,0.8229,2.262
1.054000,2.0985,-0.2533,0.8310,2.271
1.059000,2.1250,-0.2437,0.8624,2.306
1.063000,2.1749,-0.1873,0.8575,2.345
1.069000,2.1909,-0.1287,0.7732,2.327
1.074000,2.1483,-0.0543,0.7531,2.277
1.079000,2.1612,-0.0148,0.8522,2.323
1.086000,2.1828,-0.0211,0.8876,2.356
1.089000,2.1455,0.0562,0.9321,2.340
1.094000,2.0249,0.0958,0.8593,2.202
1.099000,1.9358,0.0925,0.7597,2.082
1.105000,1.9189,0.1108,0.6669,2.035
1.109000,1.9153,0.1451,0.5877,2.009
1.115000,1.9449,0.1694,0.5006,2.015
1.129000,1.8989,0.2459,0.4735,1.972
1.131000,1.8475,0.2970,0.4311,1.920
1.133000,1.8494,0.2753,0.4472,1.923
1.157000,1.8181,0.2586,0.4392,1.888
1.159000,1.7594,0.2697,0.3546,1.815
1.160000,1.7908,0.2884,0.2674,1.834
1.161000,1.8039,0.3155,0.3011,1.856
1.162000,1.7833,0.3379,0.3239,1.844
1.164000,1.7721,0.3193,0.3612,1.837
1.165000,1.7906,0.3112,0.4083,1.863
1.173000,1.8440,0.3264,0.4448,1.925
1.176000,1.8418,0.2666,0.5022,1.928
1.181000,1.8509,0.2369,0.6402,1.973
1.187000,1.8630,0.2275,0.7107,2.007
1.191000,1.8409,0.2500,0.7185,1.992
1.196000,1.7958,0.2674,0.6795,1.939
1.201000,1.7384,0.3527,0.6759,1.898
1.206000,1.6459,0.3721,0.6815,1.820
1.211000,1.5369,0.3928,0.6614,1.719
1.216000,1.4420,0.4223,0.5628,1.605
1.228000,1.3279,0.4368,0.5030,1.486
1.230000,1.2065,0.5167,0.4709,1.394
1.231000,1.1517,0.5663,0.4522,1.361
1.249000,1.1473,0.6084,0.3895,1.356
1.250000,1.0843,0.5938,0.3020,1.273
1.251000,1.0423,0.5886,0.2040,1.214
1.252000,1.0108,0.5487,0.0727,1.152
1.262000,0.9958,0.4813,0.0180,1.106
1.263000,1.0000,0.4585,-0.0797,1.103
1.266000,1.0101,0.4681,-0.0770,1.116
1.274000,0.9810,0.4121,-0.0827,1.067
1.276000,1.0040,0.3334,-0.0728,1.060
1.281000,0.9702,0.2797,0.0078,1.010
1.287000,0.9631,0.2362,-0.0034,0.992
1.291000,0.9335,0.2426,-0.0180,0.965
1.297000,0.8826,0.2583,-0.0743,0.923
1.302000,0.8452,0.2773,-0.1542,0.903
1.307000,0.8025,0.3284,-0.2578,0.905
1.312000,0.6983,0.3507,-0.3194,0.844
1.317000,0.5842,0.3702,-0.3521,0.776
1.322000,0.5640,0.3956,-0.3367,0.767
1.327000,0.5239,0.3898,-0.3501,0.741
1.332000,0.4754,0.4200,-0.4065,0.753
1.347000,0.4568,0.3833,-0.3625,0.698
1.349000,0.4463,0.3401,-0.3142,0.643
1.350000,0.4392,0.2964,-0.2555,0.588
1.355000,0.4208,0.2413,-0.2103,0.529
1.358000,0.4301,0.2323,-0.2050,0.530
1.362000,0.4355,0.2286,-0.1773,0.523
1.367000,0.4517,0.1523,0.0236,0.477
1.372000,0.4800,0.0928,0.2493,0.549
1.378000,0.5045,-0.0106,0.4884,0.702
1.383000,0.4697,-0.1031,0.6432,0.803
1.389000,0.4017,-0.1408,0.7007,0.820
1.393000,0.3627,-0.1585,0.6515,0.762
1.397000,0.2873,-0.1464,0.5291,0.620
1.403000,0.2735,-0.0806,0.4375,0.522
1.408000,0.2139,-0.0433,0.2499,0.332
1.413000,0.1172,0.0481,0.0069,0.127
1.418000,0.0076,0.0878,-0.2800,0.294
1.424000,-0.0918,0.1148,-0.4328,0.457
1.428000,-0.2183,0.1941,-0.5453,0.619
1.434000,-0.2615,0.2303,-0.5868,0.682
1.448000,-0.3009,0.2153,-0.5298,0.646
1.449000,-0.3225,0.1908,-0.4893,0.616
1.450000,-0.3278,0.1665,-0.4114,0.552
1.471000,-0.3189,0.1002,-0.2864,0.440
1.472000,-0.3270,0.0909,-0.1823,0.385
1.473000,-0.6554,0.1081,0.1020,0.672
1.473000,-1.1207,0.2696,0.8306,1.421
1.475000,-1.0914,0.4328,1.4282,1.849
1.479000,-0.6513,0.4421,1.5145,1.707
1.484000,-0.0674,0.2510,0.9126,0.949
1.489000,0.5348,-0.1587,-0.0476,0.560
1.496000,0.7078,-0.5223,-0.8419,1.218
1.499000,0.4018,-0.6718,-1.0704,1.326
1.506000,-0.0072,-0.6243,-0.7367,0.966
1.509000,-0.3696,-0.4747,-0.1132,0.612
1.514000,-0.4970,-0.2896,0.4961,0.760
1.520000,-0.4245,-0.1139,0.8008,0.913
1.525000,-0.3381,-0.0227,0.9681,1.026
1.529000,-0.2690,-0.0382,0.9197,0.959
1.535000,-0.2023,-0.1411,0.7827,0.821
1.540000,-0.1271,-0.2783,0.4612,0.553
1.545000,0.0347,-0.3953,0.1560,0.426
1.549000,0.1531,-0.4602,-0.1707,0.514
1.566000,0.2001,-0.4487,-0.3219,0.587
1.568000,0.1482,-0.3809,-0.4248,0.590
1.569000,0.0417,-0.3728,-0.4341,0.574
1.591000,-0.0968,-0.2906,-0.3891,0.495
1.593000,-0.1370,-0.1943,-0.3090,0.390
1.593000,-0.1654,-0.1824,-0.2665,0.363
1.594000,-0.1622,-0.1808,-0.1932,0.310
1.595000,-0.1357,-0.1901,-0.1379,0.271
1.596000,-0.0628,-0.2477,-0.0943,0.272
1.601000,-0.0213,-0.2867,-0.0623,0.294
1.606000,-0.0112,-0.2965,-0.0479,0.301
1.611000,0.0433,-0.3108,-0.0831,0.325
1.615000,0.0369,-0.2781,-0.0985,0.297
1.621000,0.0094,-0.2427,-0.1769,0.300
1.625000,-0.0126,-0.2201,-0.1506,0.267
1.631000,-0.0735,-0.2521,-0.1287,0.292
1.637000,-0.0985,-0.2022,-0.1159,0.253
1.640000,-0.1369,-0.2247,-0.1232,0.291
1.646000,-0.1630,-0.2630,-0.0525,0.314
1.650000,-0.1972,-0.2069,0.0122,0.286
1.656000,-0.2592,-0.1762,0.0029,0.313
1.661000,-0.3202,-0.1922,-0.0255,0.374
1.666000,-0.3218,-0.1804,0.0237,0.370
1.681000,-0.3401,-0.1470,0.0429,0.373
1.683000,-0.3301,-0.1364,0.0395,0.359
1.683000,-0.3314,-0.1510,0.0432,0.367
1.704000,-0.3899,-0.1617,0.0648,0.427
1.705000,-0.3478,-0.1472,0.1592,0.410
1.706000,-0.2820,-0.2142,0.3205,0.478
1.707000,-0.2791,-0.3294,0.4246,0.606
1.707000,-0.2137,-0.4243,0.4021,0.622
1.712000,-0.1336,-0.4703,0.3452,0.599
1.717000,-0.1019,-0.4626,0.2944,0.558
1.722000,-0.0873,-0.4512,0.2161,0.508
1.728000,-0.1342,-0.3880,0.0863,0.419
1.732000,-0.1943,-0.3614,-0.0006,0.410
1.738000,-0.2758,-0.2866,-0.0926,0.408
1.741000,-0.3404,-0.2209,-0.1154,0.422
1.747000,-0.3630,-0.2026,-0.0944,0.426
1.752000,-0.4158,-0.1983,-0.0891,0.469
1.758000,-0.4235,-0.1783,-0.0888,0.468
1.762000,-0.4174,-0.2035,-0.1209,0.480
1.767000,-0.3687,-0.2234,-0.1843,0.469
1.781000,-0.3059,-0.2512,-0.3281,0.514
1.783000,-0.2966,-0.2043,-0.4207,0.554
1.783000,-0.2668,-0.2214,-0.4563,0.573
1.805000,-0.2413,-0.2258,-0.4648,0.570
1.807000,-0.2309,-0.2762,-0.4691,0.591
1.807000,-0.2568,-0.2697,-0.4010,0.547
1.808000,-0.2879,-0.2855,-0.2508,0.477
1.809000,-0.2731,-0.3311,-0.0877,0.438
1.812000,-0.2677,-0.3327,0.0408,0.429
1.817000,-0.2536,-0.3146,0.0966,0.416
1.823000,-0.2598,-0.2791,0.0857,0.391
1.828000,-0.2948,-0.2585,0.0525,0.396
1.833000,-0.2844,-0.2859,0.0745,0.410
1.838000,-0.2553,-0.3119,0.0939,0.414
1.843000,-0.2566,-0.3894,0.1123,0.480
1.848000,-0.2763,-0.3579,0.1102,0.465
1.855000,-0.2557,-0.3515,0.1010,0.446
1.858000,-0.2451,-0.3475,0.1242,0.443
1.863000,-0.2205,-0.3520,0.1223,0.433
1.867000,-0.1616,-0.3613,0.1216,0.414
1.873000,-0.1556,-0.3623,0.0828,0.403
1.878000,-0.1724,-0.3801,0.0692,0.423
1.883000,-0.1869,-0.3694,0.0115,0.414
1.897000,-0.1905,-0.3673,-0.1261,0.433
1.898000,-0.1218,-0.4060,-0.2108,0.473
1.899000,-0.1012,-0.3803,-0.2127,0.447
1.921000,-0.1071,-0.3334,-0.3006,0.462
1.922000,-0.0871,-0.3143,-0.3799,0.501
1.923000,-0.0424,-0.3250,-0.4198,0.533
1.924000,-0.0275,-0.3296,-0.4371,0.548
1.925000,-0.1083,-0.2991,-0.4619,0.561
1.929000,-0.1140,-0.2571,-0.4968,0.571
1.934000,-0.1730,-0.2814,-0.4631,0.569
1.939000,-0.2282,-0.2581,-0.4420,0.560
1.944000,-0.3029,-0.2529,-0.3739,0.544
1.949000,-0.3063,-0.2910,-0.2933,0.514
1.955000,-0.3065,-0.3187,-0.1908,0.482
1.960000,-0.2771,-0.3007,-0.0850,0.418
1.965000,-0.2371,-0.2649,0.1093,0.372
1.969000,-0.4489,-0.1735,0.4473,0.657
1.974000,-0.5768,-0.1252,0.7069,0.921
1.979000,-0.5115,-0.0392,0.8407,0.985
1.985000,-0.3771,0.0175,0.8598,0.939
2.000000,-0.2809,0.0101,0.7786,0.828
2.002000,-0.1832,-0.0312,0.6270,0.654
2.003000,-0.0990,-0.0596,0.4826,0.496
2.005000,-0.1090,-0.1010,0.3702,0.399
2.009000,-0.1315,-0.0946,0.3047,0.345
2.015000,-0.1868,-0.1170,0.2406,0.326
2.025000,-0.3293,-0.0442,0.1223,0.354
2.026000,-0.4503,-0.0182,0.0356,0.452
2.030000,-0.4732,0.0429,0.0448,0.477
2.035000,-0.5302,0.1056,-0.0190,0.541
2.041000,-0.5661,0.2140,-0.1065,0.614
2.045000,-0.5171,0.3010,-0.0993,0.607
2.050000,-0.3853,0.3700,-0.0787,0.540
2.055000,-0.1934,0.3060,0.0619,0.367
2.060000,0.0229,0.1168,0.1759,0.212
2.065000,0.1754,-0.1285,0.3342,0.399
2.071000,0.2346,-0.2712,0.4604,0.584
2.076000,0.1736,-0.3523,0.6515,0.761
2.081000,0.2562,-0.4196,0.6925,0.849
2.086000,0.4095,-0.4860,0.7135,0.956
2.090000,0.3980,-0.4508,0.6224,0.865
2.096000,0.2735,-0.3916,0.4848,0.681
2.102000,0.2361,-0.3921,0.4801,0.663
2.115000,0.1423,-0.2917,0.5232,0.616
2.117000,-0.0945,-0.1552,0.5421,0.572
2.117000,-0.3242,-0.0140,0.5132,0.607
2.138000,-0.4479,0.0854,0.3672,0.585
2.140000,-0.5666,0.1850,0.3060,0.670
2.140000,-0.6788,0.3085,0.3835,0.839
2.141000,-0.6405,0.3674,0.4969,0.890
2.142000,-0.6150,0.3771,0.4931,0.874
2.147000,-0.6863,0.4489,0.4298,0.926
2.151000,-0.7434,0.4486,0.3158,0.924
2.157000,-0.8441,0.5669,-0.1481,1.027
2.162000,-1.0105,0.7577,-0.3252,1.304
2.167000,-1.0637,0.8364,-0.5297,1.453
2.173000,-1.0767,0.7826,-0.6495,1.481
2.177000,-0.9568,0.7158,-0.5720,1.325
2.182000,-0.7571,0.5716,-0.5095,1.077
2.189000,-0.5586,0.4368,-0.3706,0.800
2.192000,-0.3743,0.2308,-0.3775,0.580
2.197000,-0.1798,0.0180,-0.2799,0.333
2.202000,0.0885,-0.1734,-0.1159,0.227
2.207000,0.3648,-0.3891,0.0955,0.542
2.213000,0.5993,-0.6113,0.2743,0.899
2.217000,0.5258,-0.5389,0.4544,0.879
2.233000,0.2773,-0.2932,0.5330,0.668
2.234000,0.6984,-0.5134,0.4298,0.968
2.234000,1.3822,-0.6493,0.6268,1.651
2.254000,1.2885,-0.7673,1.7116,2.276
2.257000,0.5644,-0.6957,1.5996,1.833
2.259000,-0.0059,-0.3965,1.6302,1.678
2.260000,0.0025,-0.2082,1.6798,1.693
2.261000,0.1120,-0.0445,1.1034,1.110
2.263000,0.1072,0.2270,0.4493,0.515
2.268000,-0.0154,0.3870,0.3861,0.547
2.273000,-0.1327,0.1966,0.3898,0.456
2.278000,-0.1704,-0.0683,0.0280,0.186
2.283000,-0.1963,-0.1349,-0.0627,0.246
2.289000,-0.3337,-0.1113,0.0600,0.357
2.293000,-0.4273,-0.0185,0.1506,0.453
2.298000,-0.4648,-0.0020,0.0952,0.474
2.303000,-0.5070,-0.0693,0.0346,0.513
2.308000,-0.5930,-0.0479,0.0377,0.596
2.314000,-0.5659,0.2423,0.1627,0.637
2.318000,-0.1343,1.8729,1.1740,2.215
2.331000,0.1303,2.0250,0.5967,2.115
2.332000,0.0298,1.6753,-0.0357,1.676
2.333000,-0.0769,1.5425,-0.4900,1.620
2.352000,-0.0116,1.2094,-0.7910,1.445
2.354000,0.1336,0.8987,-0.5707,1.073
2.355000,0.2929,0.6147,0.0152,0.681
2.356000,0.4975,0.2906,0.3670,0.683
2.365000,0.6990,0.0137,0.4243,0.818
2.366000,0.8176,-0.1424,0.3866,0.916
2.369000,0.8014,-0.0891,0.4065,0.903
2.376000,0.7897,-0.0162,0.4942,0.932
2.379000,0.7727,0.0989,0.3939,0.873
2.384000,0.6583,0.2762,0.2687,0.763
2.389000,0.5837,0.5507,0.3396,0.871
2.394000,0.5061,0.8400,0.4171,1.066
2.399000,0.3904,1.1385,0.2761,1.235
2.405000,0.2345,1.2254,0.0625,1.249
2.409000,0.1576,1.1745,-0.3371,1.232
2.415000,0.0902,1.0698,-0.4756,1.174
2.420000,0.1138,1.0100,-0.3910,1.089
2.425000,0.1450,0.8971,-0.1780,0.926
2.429000,0.1973,0.7382,-0.0663,0.767
2.435000,0.2447,0.5907,0.0854,0.645
2.450000,0.2411,0.4926,0.1338,0.565
2.451000,0.1484,0.3877,0.0852,0.424
2.452000,0.0684,0.2720,-0.1378,0.312
2.475000,-0.0192,0.0999,-0.4023,0.415
2.477000,-0.0099,-0.1416,-0.4726,0.493
2.477000,0.1046,-0.3901,-0.2886,0.496
2.478000,0.2728,-0.6509,0.0497,0.707
2.478000,0.3927,-0.8759,0.3723,1.030
2.480000,0.3955,-0.9346,0.5619,1.160
2.486000,0.3216,-0.9268,0.5822,1.141
2.490000,0.1758,-0.8591,0.4244,0.974
2.496000,-0.0288,-0.7707,0.1779,0.792
2.501000,-0.2041,-0.6175,0.0740,0.655
2.506000,-0.3004,-0.4843,-0.0863,0.576
2.510000,-0.3551,-0.3936,-0.0434,0.532
2.516000,-0.4062,-0.2809,0.0531,0.497
2.521000,-0.4517,-0.1562,-0.0020,0.478
2.526000,-0.4737,-0.0665,-0.1722,0.508
2.531000,-0.5436,0.0350,-0.1779,0.573
2.536000,-0.6212,0.1124,-0.2023,0.663
2.547000,-0.6799,0.1640,-0.4121,0.812
2.548000,-0.6743,0.0999,-0.5093,0.851
2.551000,-0.6610,0.1072,-0.4002,0.780
2.566000,-1.0492,0.6587,-2.6374,2.914
2.568000,-0.5368,1.6602,1.1496,2.089
2.569000,1.6887,0.3689,4.6779,4.987
2.578000,0.8946,-0.3464,0.2492,0.991
2.579000,-0.5840,-0.3577,-0.3200,0.756
2.581000,-1.0217,-0.2028,-1.0926,1.510
2.586000,-0.8491,-0.1695,-1.1919,1.473
2.592000,-0.7426,-0.0664,-0.3533,0.825
2.597000,-0.6832,-0.0171,0.5420,0.872
2.602000,-0.5939,-0.1651,0.6823,0.920
2.606000,-0.6759,-0.2618,0.5475,0.908
2.612000,-0.8098,-0.2400,0.4172,0.942
2.617000,-0.9524,-0.2409,0.1822,0.999
2.623000,-0.9899,-0.2940,-0.0118,1.033
2.627000,-0.9141,-0.4231,-0.1259,1.015
2.632000,-0.6711,-0.6249,-0.1540,0.930
2.637000,-0.4001,-0.7850,-0.0834,0.885
2.642000,-0.2120,-0.8661,0.0983,0.897
2.647000,-0.0680,-0.8818,0.1691,0.900
2.652000,0.0254,-0.8867,0.1829,0.906
2.666000,0.0507,-0.7883,0.2802,0.838
2.668000,-0.0315,-0.6451,0.2003,0.676
2.668000,-0.1923,-0.4563,-0.0133,0.495
2.691000,-0.3566,-0.2001,-0.1361,0.431
2.692000,-0.4313,0.0325,-0.1671,0.464
2.693000,-0.5856,0.3093,-0.1816,0.687
2.694000,-0.6954,0.5059,-0.2860,0.906
2.695000,-0.7532,0.6387,-0.3404,1.045
2.698000,-0.7592,0.7029,-0.3542,1.094
2.703000,-0.7351,0.6272,-0.3710,1.035
2.707000,-0.6158,0.4796,-0.3237,0.845
2.713000,-0.4741,0.2876,-0.3427,0.652
2.718000,-0.4497,0.0989,-0.3067,0.553
2.725000,-0.4111,-0.0080,-0.2597,0.486
2.729000,-0.3213,-0.0701,-0.2243,0.398
2.734000,-0.2017,-0.1874,-0.1619,0.319
2.738000,-0.1498,-0.2115,-0.0935,0.276
2.743000,-0.1268,-0.2733,-0.0858,0.313
2.748000,-0.0544,-0.3911,-0.1980,0.442
2.754000,-0.0862,-0.4682,-0.1758,0.507
2.767000,-0.0716,-0.5874,-0.1628,0.614
2.769000,-0.0657,-0.6470,-0.1470,0.667
2.794000,-0.1210,-0.6316,-0.1963,0.672
2.795000,-0.2306,-0.6285,-0.1135,0.679
2.796000,-0.3174,-0.6115,0.0501,0.691
2.797000,-0.3487,-0.6355,0.0324,0.726
2.798000,-0.4320,-0.5965,-0.0718,0.740
2.800000,-0.5575,-0.5397,-0.0703,0.779
2.801000,-0.6715,-0.4961,-0.1345,0.846
2.806000,-0.8169,-0.5000,-0.2529,0.991
2.810000,-0.9388,-0.5379,-0.4654,1.178
2.815000,-0.9479,-0.5486,-0.4243,1.175
2.820000,-0.8764,-0.6028,-0.3689,1.126
2.825000,-0.7982,-0.6361,-0.3478,1.078
2.829000,-0.7539,-0.6680,-0.2710,1.043
2.834000,-0.7426,-0.6578,-0.3152,1.041
2.840000,-0.7528,-0.7112,-0.3412,1.090
2.845000,-0.6959,-0.7146,-0.2938,1.040
2.850000,-0.5674,-0.7146,-0.2160,0.938
2.856000,-0.4908,-0.6456,-0.1068,0.818
2.861000,-0.5010,-0.4813,0.0266,0.695
2.865000,-0.5445,-0.3461,0.0312,0.646
2.870000,-0.5128,-0.2576,0.1303,0.589
2.885000,-0.4864,-0.2602,0.2354,0.600
2.886000,-0.4979,-0.3175,0.2481,0.641
2.887000,-0.4175,-0.3791,0.3068,0.642
2.910000,-0.3783,-0.4424,0.4171,0.716
2.911000,-0.4067,-0.5074,0.4582,0.796
2.912000,-0.3915,-0.5598,0.3573,0.771
2.913000,-0.3710,-0.5027,0.4181,0.752
2.913000,-0.3681,-0.5051,0.4341,0.761
2.916000,-0.2285,-0.5420,0.3745,0.697
2.921000,-0.1969,-0.4928,0.3065,0.613
2.926000,-0.1375,-0.4950,0.2722,0.581
2.931000,-0.0605,-0.4724,0.2850,0.555
2.936000,-0.0830,-0.4609,0.2673,0.539
2.941000,-0.0563,-0.4736,0.1783,0.509
2.946000,-0.1069,-0.4879,0.1392,0.519
2.951000,-0.1131,-0.5311,0.2189,0.586
2.957000,-0.0559,-0.5591,0.1880,0.592
2.961000,-0.0480,-0.5693,0.1838,0.600
2.966000,-0.0335,-0.5356,0.3561,0.644
2.971000,-0.0559,-0.5551,0.4216,0.699
2.984000,-0.0699,-0.5225,0.3292,0.621
2.985000,-0.1435,-0.4376,0.2792,0.539
3.006000,-0.1860,-0.3698,0.3268,0.527
3.008000,-0.2087,-0.2627,0.3518,0.486
3.009000,-0.1874,-0.2348,0.2577,0.396
3.010000,-0.1339,-0.2034,0.1554,0.289
3.011000,-0.0705,-0.1518,0.1517,0.226
3.011000,0.0235,-0.1148,0.2750,0.299
3.016000,0.0890,-0.0767,0.4022,0.419
3.022000,0.0658,0.0100,0.4032,0.409
3.027000,0.0137,0.0594,0.2707,0.277
3.031000,-0.0035,0.1495,0.1263,0.196
3.037000,0.0121,0.1836,0.0272,0.186
3.043000,0.1404,0.2190,0.0679,0.269
3.046000,0.2830,0.2079,0.1431,0.379
3.052000,0.3734,0.1909,0.1418,0.443
3.057000,0.4371,0.1490,0.1534,0.487
3.062000,0.4481,0.1911,0.1626,0.514
3.067000,0.3964,0.2393,0.2301,0.517
3.074000,0.3175,0.2879,0.2073,0.476
3.077000,0.2920,0.2759,0.2077,0.452
3.082000,0.2167,0.3087,0.2457,0.450
3.087000,0.1856,0.3011,0.2424,0.429
3.101000,0.1756,0.2964,0.2719,0.439
3.102000,0.1727,0.3578,0.2819,0.487
3.102000,0.2153,0.3581,0.3720,0.559
3.121000,0.2468,0.3369,0.4147,0.589
3.122000,0.2373,0.3181,0.4492,0.599
3.123000,0.0973,0.2538,0.4830,0.554
3.123000,0.0102,0.2292,0.5432,0.590
3.132000,0.0667,0.1092,0.5276,0.543
3.133000,0.1052,0.0338,0.6100,0.620
3.138000,0.0731,-0.0174,0.6465,0.651
3.143000,-0.0124,-0.1064,0.5941,0.604
3.149000,-0.1012,-0.1840,0.3963,0.448
3.153000,-0.1397,-0.2274,0.2478,0.364
3.158000,-0.1050,-0.2281,0.2836,0.379
3.163000,-0.0033,-0.1758,0.3484,0.390
3.168000,0.0582,-0.0995,0.3819,0.399
3.174000,0.1057,-0.0613,0.4430,0.460
3.178000,0.0850,-0.0664,0.4221,0.436
3.183000,0.0567,-0.0274,0.4187,0.423
3.189000,0.0169,-0.0222,0.4785,0.479
3.193000,0.0341,-0.0123,0.4336,0.435
3.198000,0.0263,0.0598,0.3116,0.318
3.204000,-0.1171,0.1439,0.2381,0.302
3.219000,-0.1669,0.2832,0.1794,0.374
3.220000,-0.1051,0.3438,0.1210,0.379
3.221000,0.0315,0.3439,0.2207,0.410
3.244000,0.0820,0.3397,0.3758,0.513
3.246000,0.0842,0.3002,0.4783,0.571
3.247000,0.0732,0.2843,0.4572,0.543
3.247000,0.0005,0.2920,0.4463,0.533
3.248000,0.0036,0.2361,0.4130,0.476
3.250000,0.0119,0.2076,0.4646,0.509
3.255000,0.0478,0.2267,0.5841,0.628
3.261000,-0.0275,0.2575,0.6050,0.658
3.264000,-0.1888,0.2948,0.5418,0.645
3.269000,-0.2330,0.2873,0.5126,0.632
3.276000,-0.0916,0.2218,0.3768,0.447
3.280000,0.0651,0.1448,0.3489,0.383
3.284000,0.1709,0.1724,0.4737,0.532
3.291000,0.2117,0.2465,0.5341,0.625
3.295000,0.2446,0.3052,0.4168,0.572
3.300000,0.2272,0.3327,0.2530,0.476
3.305000,0.2485,0.3915,0.1861,0.500
3.317000,0.2622,0.4168,0.1565,0.517
3.318000,0.3290,0.4150,0.0503,0.532
3.320000,0.3660,0.4256,0.1390,0.578
3.344000,0.3512,0.4497,0.2527,0.624
3.345000,0.2999,0.4766,0.3205,0.648
3.346000,0.2189,0.5351,0.3877,0.696
3.347000,0.1459,0.5355,0.3893,0.678
3.348000,0.1091,0.4555,0.2869,0.549
3.351000,0.2074,0.2952,0.2406,0.434
3.356000,0.2491,0.1958,0.2739,0.419
3.361000,0.2816,0.1122,0.4264,0.523
3.365000,0.3471,0.0367,0.4885,0.600
3.371000,0.3738,-0.0759,0.3923,0.547
3.376000,0.4179,-0.2256,0.1847,0.510
3.381000,0.4808,-0.3147,0.0283,0.575
3.386000,0.4621,-0.3599,-0.0350,0.587
3.391000,0.4969,-0.3688,-0.0081,0.619
3.396000,0.5196,-0.3610,-0.1937,0.662
3.402000,0.5607,-0.3410,-0.3763,0.756
3.419000,0.6303,-0.3523,-0.3274,0.793
3.420000,0.7627,-0.3205,-0.1977,0.851
3.421000,0.9157,-0.3333,0.0117,0.975
3.423000,1.0150,-0.3487,0.1011,1.078
3.445000,1.0418,-0.2999,0.0507,1.085
3.446000,0.9284,-0.2216,-0.1335,0.964
3.447000,0.7885,-0.1331,-0.2084,0.826
3.448000,0.6647,-0.0561,-0.1607,0.686
3.449000,0.6205,-0.0421,-0.1090,0.631
3.452000,0.6914,-0.1052,-0.1306,0.711
3.457000,0.7324,-0.2392,-0.0450,0.772
3.470000,0.8058,-0.3042,0.2254,0.890
3.471000,0.7836,-0.3242,0.3885,0.933
3.481000,0.7206,-0.3821,0.4185,0.917
3.483000,0.7114,-0.5383,0.3878,0.973
3.487000,0.7727,-0.7114,0.4182,1.130
3.488000,0.8243,-0.8211,0.5573,1.290
3.496000,0.8702,-0.8840,0.7103,1.429
3.497000,0.8340,-0.9134,0.6596,1.402
3.502000,0.6686,-0.8204,0.6880,1.262
3.518000,0.3607,-0.6833,0.6653,1.020
3.519000,0.2554,-0.5956,0.4050,0.764
3.520000,0.3024,-0.5439,0.3545,0.716
3.521000,0.4411,-0.5594,0.5799,0.919
3.531000,0.4991,-0.6562,0.6878,1.074
3.532000,0.4431,-0.6590,0.7123,1.067
3.536000,0.4996,-0.6517,0.7847,1.136
3.542000,0.5812,-0.7323,0.8388,1.256
3.547000,0.6363,-0.7812,0.8421,1.313
3.554000,0.6142,-0.7900,0.8874,1.337
3.558000,0.5296,-0.8130,1.0132,1.403
3.562000,0.4379,-0.7916,0.9497,1.312
3.567000,0.2266,-0.7534,0.7813,1.109
3.572000,0.1335,-0.7561,0.4961,0.914
3.578000,0.0971,-0.7837,0.4285,0.898
3.582000,0.0354,-0.7908,0.4221,0.897
3.587000,-0.0121,-0.8121,0.2904,0.862
3.593000,0.0011,-0.8149,0.1429,0.827
3.598000,0.0388,-0.8361,0.1517,0.851
3.603000,0.0677,-0.7885,0.4247,0.898
3.609000,0.0458,-0.7378,0.5689,0.933
3.614000,-0.0447,-0.7185,0.5064,0.880
3.618000,-0.1366,-0.7818,0.3484,0.867
3.623000,-0.2000,-0.8894,0.2216,0.938
3.628000,-0.2066,-1.0041,0.1635,1.038
3.634000,-0.2593,-1.0707,-0.1095,1.107
3.638000,-0.3426,-1.1135,-0.4787,1.260
3.653000,-0.2446,-1.1587,-0.4950,1.284
3.655000,-0.0082,-1.3165,-0.3923,1.374
3.657000,0.2276,-1.4003,-0.2916,1.448
3.679000,0.2800,-1.3467,-0.3085,1.410
3.681000,0.2328,-1.3019,-0.4108,1.385
3.682000,0.1920,-1.2615,-0.5956,1.408
3.683000,0.1144,-1.2352,-0.8099,1.481
3.684000,0.1490,-1.2123,-0.7469,1.432
3.685000,0.1697,-1.2062,-0.6488,1.380
3.689000,0.1425,-1.1810,-0.8358,1.454
3.694000,0.0911,-1.0736,-0.8617,1.380
3.699000,0.0534,-0.9964,-0.8098,1.285
3.704000,0.0038,-0.9435,-0.8879,1.296
3.709000,0.0048,-0.9289,-1.0223,1.381
3.714000,0.0182,-1.0004,-1.1012,1.488
3.719000,0.1449,-1.0763,-1.0959,1.543
3.726000,0.2680,-1.1205,-1.0438,1.555
3.730000,0.3170,-1.1796,-1.1361,1.668
3.735000,0.4132,-1.2439,-1.3426,1.876
3.740000,0.5645,-1.2567,-1.5071,2.042
3.753000,0.6902,-1.2492,-1.4826,2.058
3.755000,0.8186,-1.2415,-1.3906,2.036
3.756000,0.8636,-1.1848,-1.3715,2.008
3.775000,0.8634,-1.0350,-1.4845,2.005
3.777000,0.8115,-0.8549,-1.5999,1.987
3.778000,0.6750,-0.7156,-1.5647,1.848
3.779000,0.6326,-0.5909,-1.4566,1.694
3.780000,0.7026,-0.5242,-1.2827,1.554
3.786000,0.7677,-0.5538,-1.2512,1.569
3.792000,0.7609,-0.6531,-1.1292,1.510
3.795000,0.7843,-0.7004,-1.1103,1.529
3.800000,0.7682,-0.6659,-1.3543,1.693
3.806000,0.7672,-0.7351,-1.6030,1.923
3.811000,0.8096,-0.7920,-2.1813,2.458
3.816000,1.0439,-1.0063,-1.6545,2.200
3.821000,1.2196,-0.9802,-0.8670,1.789
3.826000,1.2042,-0.1553,-0.6117,1.360
3.831000,0.9023,0.7215,-0.3323,1.202
3.836000,0.5826,1.1242,-0.2974,1.301
3.843000,0.9299,1.5405,-0.6871,1.926
3.846000,1.6068,2.3802,-0.3063,2.888
3.851000,1.9164,3.0498,-0.4286,3.627
3.856000,1.9034,2.8538,-0.3737,3.451
3.872000,1.6534,2.0822,-0.4457,2.696
3.873000,1.4986,2.2290,-1.0885,2.898
3.875000,1.1985,2.5061,-1.2051,3.028
3.899000,1.1249,2.7546,-0.7784,3.076
3.901000,0.9663,2.9215,-0.9143,3.210
3.903000,0.6834,2.7467,-1.4240,3.169
3.904000,0.6974,2.3241,-1.6267,2.921
3.906000,0.8993,1.7080,-1.5732,2.490
3.907000,1.1250,0.9214,-1.3213,1.965
3.908000,1.0891,0.5068,-1.2283,1.718
3.913000,0.9049,0.5553,-1.2180,1.616
3.917000,0.7546,0.8139,-1.2564,1.676
3.922000,0.4711,1.1839,-1.2210,1.765
3.927000,0.1713,1.4892,-0.9616,1.781
3.932000,-0.0262,1.6209,-1.0150,1.913
3.937000,-0.0246,1.6380,-1.0759,1.960
3.943000,-0.0033,1.4573,-0.8809,1.703
3.947000,0.0708,1.1190,-0.8635,1.415
3.952000,0.2558,0.6926,-0.5050,0.895
3.957000,0.2500,0.1538,-0.1500,0.330
3.968000,0.1183,-0.4089,-0.3400,0.545
3.970000,0.0122,-0.9124,-0.6475,1.119
3.972000,-0.1737,-1.1460,-0.5300,1.275
3.991000,-0.3347,-1.0998,-0.5588,1.278
3.993000,-0.2544,-1.0873,-0.4492,1.204
3.994000,-0.2253,-0.9801,-0.2117,1.028
3.995000,-0.2581,-0.7704,-0.0894,0.817
3.998000,-0.2919,-0.4524,0.0650,0.542
4.003000,-0.4320,-0.2246,-0.0399,0.489
4.009000,-0.6162,0.1581,-0.0803,0.641
4.013000,-0.5831,0.3579,0.2591,0.732
4.018000,-0.6001,0.4854,0.5393,0.942
4.023000,-0.7003,0.5701,0.5314,1.048
4.027000,-0.6478,0.4538,0.3250,0.855
4.034000,-0.5305,0.4897,0.3130,0.787
4.038000,-0.0384,0.2695,0.3137,0.415
4.045000,0.2818,-0.0701,0.3821,0.480
4.048000,0.2764,-0.0696,0.3269,0.434
4.054000,0.2984,-0.0075,0.1134,0.319
4.074000,0.4476,0.0756,0.2199,0.504
4.075000,0.2362,0.1361,0.2166,0.348
4.076000,-0.0388,0.1466,0.3009,0.337
4.077000,-0.2154,0.2975,0.4514,0.582
4.085000,-0.3386,0.3344,0.4249,0.638
4.086000,-0.4506,0.3037,0.4368,0.697
4.089000,-0.4279,0.2023,0.5054,0.692
4.103000,-0.3533,-0.0375,0.4343,0.561
4.104000,-0.3609,-0.2490,0.3998,0.593
4.105000,-0.2254,-0.3884,0.5338,0.698
4.120000,-0.0695,-0.6196,0.5762,0.849
4.121000,-0.0201,-0.9359,0.6002,1.112
4.122000,0.1431,-1.2901,0.5875,1.425
4.125000,0.2195,-1.3605,0.6950,1.543
4.134000,0.2442,-1.3829,0.7843,1.608
4.136000,0.1935,-1.3268,0.9178,1.625
4.140000,-0.0108,-1.1343,0.9146,1.457
4.146000,-0.1426,-0.9258,0.9840,1.359
4.150000,-0.4420,-0.6994,1.2305,1.483
4.155000,-0.8208,-0.5078,0.9923,1.384
4.160000,-0.9131,-0.6786,0.4701,1.231
4.165000,-0.9932,-1.0064,0.5952,1.534
4.170000,-0.9235,-1.1980,1.0135,1.821
4.175000,-0.8728,-1.4171,0.9678,1.925
4.189000,-0.6908,-1.7986,0.8932,2.124
4.190000,-0.4259,-2.1517,0.7624,2.322
4.192000,-0.1720,-2.4254,0.5736,2.498
4.216000,0.0383,-2.7928,0.6008,2.857
4.218000,0.1742,-3.2517,0.6482,3.320
4.220000,0.2444,-3.6225,0.4595,3.660
4.221000,0.2505,-3.7211,0.3321,3.744
4.222000,0.1626,-3.6469,0.3776,3.670
4.223000,0.0120,-3.4588,0.3990,3.482
4.231000,-0.0335,-3.2131,0.0422,3.214
4.233000,-0.1108,-3.0664,-0.2854,3.082
4.236000,-0.1074,-3.0507,-0.4598,3.087
4.241000,0.0383,-2.9764,-0.5440,3.026
4.246000,0.1827,-2.8473,-0.5304,2.902
4.252000,0.4579,-2.6218,-0.3123,2.680
4.256000,0.5412,-2.4183,-0.3574,2.504
4.261000,0.5911,-2.2738,-0.5976,2.424
4.266000,0.5624,-2.0880,-0.4853,2.216
4.271000,0.5867,-2.0068,-0.6698,2.195
4.278000,0.5686,-1.3421,-0.5599,1.561
4.281000,0.3456,-0.5967,-0.3643,0.780
4.287000,0.2568,-1.0059,-0.6110,1.205
4.292000,0.2803,-1.0548,-1.1228,1.566
4.304000,-0.1722,-0.4834,-0.8888,1.026
4.306000,-0.0543,-0.5887,-1.0123,1.172
4.307000,0.0256,-0.5545,-1.2805,1.396
4.329000,0.0591,-0.3932,-0.9921,1.069
4.331000,0.1834,-0.5820,-1.0034,1.174
4.332000,0.3446,-0.6114,-1.1917,1.383
4.333000,0.8909,-0.1741,-0.9403,1.307
4.334000,3.0444,1.7867,-1.3504,3.779
4.339000,3.0540,4.6210,-0.0552,5.539
4.342000,2.6885,5.8235,1.3451,6.554
4.349000,1.3199,8.1769,1.4375,8.407
4.351000,-1.2437,8.3361,-0.6660,8.455
4.358000,-1.2934,6.6663,-3.3853,7.588
4.362000,-0.1764,4.9997,-2.7626,5.715
4.367000,0.9408,3.4020,-1.5913,3.872
4.372000,1.5587,2.3138,-1.2985,3.077
4.378000,1.4688,1.6945,-1.8425,2.902
4.383000,1.3426,1.0660,-2.3026,2.871
4.388000,1.4135,0.9648,-1.9951,2.629
4.392000,1.3838,0.8937,-1.8885,2.506
4.397000,1.3851,0.4022,-1.7742,2.286
4.402000,1.4435,-0.1453,-1.2334,1.904
4.407000,1.6323,-0.5430,-0.7558,1.879
4.421000,1.4170,-0.5960,-0.4744,1.609
4.423000,0.9048,-0.4759,-0.2630,1.056
4.423000,0.8517,-0.5809,-0.2526,1.061
4.448000,1.4890,-0.9168,-0.0672,1.750
4.450000,0.4567,-0.5520,0.0032,0.716
4.451000,-0.2084,-0.3102,-0.5886,0.697
4.452000,-0.2539,-0.5166,-1.0157,1.167
4.453000,-0.7690,-0.6460,-0.8333,1.305
4.454000,-1.1961,-0.6125,-0.2089,1.360
4.458000,-1.1495,-0.6840,-0.0949,1.341
4.463000,-1.3501,-0.5054,0.1240,1.447
4.468000,-1.7454,-0.7146,0.3376,1.916
4.473000,-1.5571,-0.8592,0.2841,1.801
4.478000,-1.1433,-0.9541,0.6030,1.607
4.484000,-0.6338,-1.4932,0.4920,1.695
4.489000,-0.0259,-1.7958,0.7300,1.939
4.494000,0.2862,-1.8298,1.1051,2.157
4.498000,-0.0771,-1.2843,1.2971,1.827
4.504000,-0.6858,-0.2747,1.4607,1.637
4.509000,-0.9746,1.3573,2.2003,2.763
4.514000,-0.5950,1.8033,2.4671,3.113
4.519000,0.0515,1.2463,2.0009,2.358
4.524000,1.0302,-1.0836,-0.2744,1.520
4.538000,1.0062,-1.7535,0.1561,2.028
4.540000,0.9824,-1.2256,1.3446,2.068
4.542000,1.0166,-1.0662,1.2554,1.936
4.568000,0.7564,-0.2694,1.6483,1.834
4.570000,1.2004,0.0985,2.3166,2.611
4.571000,1.7789,-0.3182,2.6308,3.192
4.573000,1.8314,-0.4164,2.0580,2.786
4.574000,1.2329,-0.0532,1.7660,2.154
4.576000,0.5889,0.1383,1.4119,1.536
4.577000,0.4485,-0.4513,0.0454,0.638
4.585000,0.5417,-0.7938,-0.9987,1.386
4.587000,1.0490,-2.5403,-2.2164,3.531
4.590000,1.3850,-3.2878,-2.2085,4.196
4.601000,1.0197,-2.3417,-1.0687,2.769
4.603000,-0.0611,-0.6714,0.7688,1.023
4.605000,-0.6853,0.4108,1.3269,1.549
4.611000,-0.8206,0.5579,1.0614,1.453
4.615000,-0.7712,0.3505,-0.1045,0.853
4.620000,-0.5341,0.3400,-0.7304,0.967
4.625000,-0.0974,0.4724,-0.7372,0.881
4.639000,-0.2495,0.9530,-0.4311,1.075
4.640000,-0.3077,1.0054,-0.3785,1.117
4.641000,-0.1950,0.8369,-0.3332,0.922
4.666000,0.7772,0.1856,-2.6477,2.766
4.668000,1.0482,-0.7978,-5.6669,5.818
4.670000,-1.2580,1.2780,-3.3524,3.802
4.671000,-2.2509,2.4973,0.5107,3.401
4.673000,-1.9207,3.2772,3.0070,4.845
4.674000,-1.0499,3.4437,2.7470,4.528
4.676000,-0.5511,3.4567,1.4938,3.806
4.682000,-0.3958,2.6101,1.2037,2.901
4.685000,0.0870,1.8244,0.7951,1.992
4.690000,0.3750,1.5086,-0.6600,1.689
4.695000,0.1100,1.5098,-1.8618,2.400
4.701000,-0.1888,1.8240,-1.6892,2.493
4.706000,-0.3871,2.0934,-1.4478,2.575
4.711000,-0.3657,2.1471,-1.5816,2.692
4.716000,-0.3506,2.2696,-1.5894,2.793
4.721000,-0.3485,2.2314,-1.3787,2.646
4.726000,-0.2890,1.7887,-1.3269,2.246
4.731000,-0.0463,1.1095,-1.1050,1.567
4.736000,-0.0623,0.6042,-0.8362,1.034
4.741000,-0.2554,0.4208,-0.8071,0.945
4.756000,-0.2206,0.1559,-0.7537,0.801
4.757000,-0.2971,0.0081,-0.7939,0.848
4.758000,-0.3902,0.0131,-1.0263,1.098
4.786000,-0.3580,-0.0421,-0.7035,0.790
4.787000,-0.3288,-0.0531,-0.4134,0.531
4.788000,-0.0044,-0.1416,0.0239,0.144
4.788000,0.0161,-0.0312,0.4626,0.464
4.789000,0.2250,-0.0940,0.7342,0.774
4.790000,0.4335,-0.0605,1.0634,1.150
4.792000,0.4455,0.1540,1.3291,1.410
4.800000,0.3408,0.2684,1.4886,1.550
4.801000,0.0728,0.5255,1.6560,1.739
4.807000,-0.1724,0.6311,1.6737,1.797
4.814000,-0.3557,0.5627,1.7288,1.853
4.818000,-0.5126,0.4629,1.6148,1.756
4.822000,-0.4423,0.1465,1.2360,1.321
4.838000,-0.1246,-0.3077,0.6082,0.693
4.839000,0.1766,-0.5349,0.1641,0.587
4.840000,0.2497,-0.4458,0.1253,0.526
4.842000,0.4410,-0.4845,0.3964,0.766
4.866000,0.8254,-0.6113,0.8567,1.338
4.867000,1.2312,-0.6204,0.9552,1.677
4.868000,1.3831,-0.2837,0.6366,1.549
4.869000,1.3929,0.2991,0.0103,1.425
4.870000,1.4656,0.7652,-0.8966,1.881
4.873000,1.4798,1.1489,-1.8088,2.604
4.878000,1.4053,1.2972,-2.4715,3.125
4.882000,1.2313,1.1145,-2.7980,3.254
4.888000,1.0061,1.0078,-2.9636,3.288
4.893000,0.7741,0.9552,-2.9250,3.173
4.898000,0.5921,0.7749,-2.4432,2.631
4.903000,0.1852,0.6919,-1.9566,2.084
4.908000,-0.4043,0.7100,-1.4069,1.627
4.914000,-0.8837,0.6834,-0.8739,1.418
4.918000,-1.2483,0.5025,-0.3004,1.379
4.924000,-1.3949,0.2052,0.3826,1.461
4.929000,-1.3677,-0.1783,0.8042,1.597
4.934000,-1.1949,-0.6811,0.8560,1.620
4.939000,-0.9973,-1.2542,0.7161,1.755
4.944000,-0.8131,-1.6850,0.5808,1.959
4.949000,-0.7024,-1.8781,0.3854,2.042
4.954000,-0.7185,-1.8737,0.2590,2.023
4.960000,-0.8449,-1.6948,0.3418,1.924
4.975000,-0.9369,-1.4099,0.3896,1.737
4.979000,-1.0694,-1.1078,0.4086,1.593
4.981000,-1.1904,-0.7970,0.4379,1.498
4.984000,-1.2193,-0.6341,0.2647,1.400
4.985000,-1.2029,-0.4766,-0.0322,1.294
4.989000,-1.0994,-0.4094,-0.2370,1.197
5.012000,-1.0285,-0.2327,-0.4345,1.140
5.013000,-1.0141,0.0153,-0.4736,1.119
5.015000,-0.9800,0.2724,-0.5429,1.153
5.015000,-0.9471,0.3904,-0.7496,1.269
5.017000,-0.8997,0.4235,-0.7750,1.261
5.020000,-0.7970,0.3097,-0.7026,1.107
5.024000,-0.7241,0.1914,-0.7218,1.040
5.031000,-0.6472,0.1619,-0.6410,0.925
5.040000,-0.5336,0.1411,-0.4437,0.708
5.041000,-0.4819,0.1229,-0.2937,0.578
5.049000,-0.4207,0.0714,-0.2498,0.494
5.050000,-0.3079,-0.0063,-0.2343,0.387
5.054000,-0.2246,-0.0599,-0.2427,0.336
5.060000,-0.1086,-0.1505,-0.2859,0.341
5.076000,-0.0410,-0.2184,-0.2184,0.312
5.079000,-0.0196,-0.2708,-0.1706,0.321
5.081000,0.0525,-0.3064,-0.1007,0.327
5.087000,0.1157,-0.2906,-0.1102,0.332
5.088000,0.1396,-0.2858,-0.0690,0.325
5.090000,0.1876,-0.3383,0.0016,0.387
5.109000,0.2203,-0.3275,-0.0026,0.395
5.110000,0.1827,-0.3144,0.0158,0.364
5.111000,0.1800,-0.3419,0.0708,0.393
5.113000,0.1834,-0.3192,0.0492,0.371
5.122000,0.1619,-0.2773,-0.0001,0.321
5.123000,0.1968,-0.3073,0.0101,0.365
5.126000,0.2023,-0.2572,-0.0279,0.328
5.136000,0.2433,-0.2157,-0.0843,0.336
5.137000,0.3009,-0.2198,-0.1268,0.394
5.141000,0.2961,-0.1560,-0.1438,0.364
5.147000,0.2940,-0.0925,-0.0948,0.322
5.151000,0.2660,-0.0163,-0.0848,0.280
5.155000,0.2311,0.0704,0.0107,0.242
5.162000,0.1583,0.1387,0.0399,0.214
5.166000,0.0904,0.2272,0.0401,0.248
5.171000,0.0930,0.2497,0.0113,0.267
5.176000,0.0930,0.2517,0.0246,0.269
5.181000,0.0769,0.2453,0.0047,0.257
5.186000,0.0637,0.2497,-0.0628,0.265
5.192000,0.0402,0.2230,-0.1934,0.298
5.205000,0.0480,0.1963,-0.3012,0.363
5.206000,0.0629,0.1506,-0.2059,0.263
5.206000,0.1246,0.0905,-0.1636,0.225
5.230000,0.1514,0.0519,-0.1097,0.194
5.231000,0.1815,-0.0343,-0.0226,0.186
5.231000,0.2675,-0.0929,0.0309,0.285
5.232000,0.2923,-0.1430,0.0880,0.337
5.232000,0.2657,-0.1823,0.0647,0.329
5.237000,0.3180,-0.1869,0.0244,0.370
5.242000,0.3367,-0.1748,0.0698,0.386
5.249000,0.3676,-0.1423,0.1294,0.415
5.252000,0.3448,-0.0442,0.1801,0.391
5.257000,0.3269,-0.0084,0.1876,0.377
5.263000,0.3556,0.0310,0.1688,0.395
5.267000,0.3198,0.0620,0.1404,0.355
5.272000,0.3631,0.1420,0.1350,0.413
5.278000,0.3454,0.2327,0.1477,0.442
5.281000,0.3469,0.2588,0.1835,0.470
5.286000,0.3808,0.2682,0.1348,0.485
5.291000,0.4019,0.2250,0.1106,0.474
5.307000,0.4188,0.1879,0.0966,0.469
5.308000,0.4432,0.1699,0.0888,0.483
5.308000,0.4491,0.1089,0.0741,0.468
5.330000,0.4543,-0.0059,0.0773,0.461
5.331000,0.4124,-0.1231,0.0470,0.433
5.331000,0.4888,-0.2773,0.1278,0.576
5.332000,0.3664,-0.2007,0.0243,0.419
5.332000,0.3193,-0.1864,-0.0812,0.379
5.337000,0.3120,-0.2425,-0.0239,0.396
5.342000,0.2829,-0.2964,-0.0579,0.414
5.348000,0.2200,-0.2750,-0.0346,0.354
5.352000,0.1446,-0.2429,-0.0424,0.286
5.357000,0.0539,-0.2121,-0.0010,0.219
5.363000,0.0386,-0.2422,0.0311,0.247
5.368000,-0.0298,-0.1920,0.0791,0.210
5.373000,-0.0846,-0.1465,0.0833,0.189
5.378000,-0.0834,-0.1450,0.1082,0.199
5.383000,-0.0383,-0.1719,0.0893,0.197
5.388000,0.0065,-0.1807,0.0289,0.183
5.393000,0.0680,-0.1198,0.0372,0.143
5.404000,0.1296,-0.0541,0.0792,0.161
5.405000,0.1952,0.0500,0.1429,0.247
5.408000,0.2101,0.1433,0.2263,0.340
5.425000,0.2665,0.2832,0.2960,0.489
5.426000,0.2742,0.4147,0.3522,0.609
5.426000,0.3136,0.5364,0.3869,0.732
5.429000,0.2921,0.6256,0.4123,0.804
5.437000,0.2643,0.7097,0.4978,0.906
5.439000,0.1793,0.8235,0.6247,1.049
5.444000,0.0445,0.9404,0.6675,1.154
5.449000,-0.1791,1.1215,0.7019,1.335
5.454000,-0.4441,1.3225,0.7005,1.561
5.459000,-0.6314,1.4334,0.6415,1.693
5.464000,-0.7293,1.3386,0.4925,1.602
5.469000,-0.7786,0.9807,0.1638,1.263
5.474000,-0.7516,0.5155,-0.2001,0.933
5.480000,-0.7394,0.1152,-0.4256,0.861
5.484000,-0.7884,-0.3312,-0.5146,0.998
5.490000,-0.8454,-0.6732,-0.7491,1.315
5.496000,-0.8757,-0.8724,-1.0308,1.609
5.500000,-0.9328,-0.9507,-1.2365,1.817
5.505000,-0.8851,-0.9750,-1.4247,1.940
5.510000,-0.6998,-0.9515,-1.5472,1.947
5.526000,-0.4430,-0.9161,-1.2959,1.648
5.528000,-0.1877,-0.9417,-0.9684,1.364
5.530000,0.2049,-0.9683,-0.7747,1.257
5.555000,0.3745,-0.8693,-0.3583,1.012
5.557000,0.4339,-0.7606,0.0930,0.881
5.558000,0.6643,-0.6673,0.4286,1.035
5.559000,0.9645,-0.6193,0.6697,1.328
5.559000,1.1808,-0.5902,0.8361,1.563
5.561000,1.3939,-0.5680,0.8773,1.742
5.562000,1.6058,-0.5529,0.8725,1.909
5.570000,1.7380,-0.5281,0.7645,1.971
5.572000,1.8209,-0.4926,0.7098,2.015
5.576000,1.8750,-0.4405,0.6148,2.022
5.585000,1.8663,-0.4101,0.5055,1.977
5.587000,1.8406,-0.3895,0.3995,1.923
5.591000,1.7182,-0.3310,0.3549,1.785
5.597000,1.3261,-0.2119,0.3343,1.384
5.601000,0.8373,-0.0957,0.4044,0.935
5.606000,0.4028,0.0190,0.4216,0.583
5.610000,0.0803,0.0415,0.4002,0.410
5.623000,-0.1165,0.0329,0.4026,0.420
5.624000,-0.2257,0.0064,0.5030,0.551
5.626000,-0.3349,0.0015,0.5942,0.682
5.652000,-0.4061,-0.0068,0.5807,0.709
5.653000,-0.4762,-0.0056,0.5860,0.755
5.654000,-0.5681,0.0353,0.6092,0.834
5.655000,-0.6232,0.0918,0.6157,0.881
5.655000,-0.6226,0.0969,0.5745,0.853
5.656000,-0.6132,0.1046,0.5810,0.851
5.661000,-0.5828,0.1148,0.5956,0.841
5.666000,-0.4958,0.0917,0.6493,0.822
5.672000,-0.3533,0.0436,0.6783,0.766
5.676000,-0.1790,0.0482,0.7664,0.789
5.682000,-0.0279,-0.0069,0.8094,0.810
5.687000,0.1157,-0.0679,0.8131,0.824
5.692000,0.2659,-0.0858,0.7906,0.839
5.697000,0.3644,-0.0450,0.7355,0.822
5.702000,0.4600,-0.0234,0.6800,0.821
5.707000,0.5894,-0.0053,0.6361,0.867
5.712000,0.6857,0.0523,0.6070,0.917
5.717000,0.7942,0.1063,0.5404,0.966
5.722000,0.8995,0.1459,0.4884,1.034
5.728000,0.9358,0.2621,0.5050,1.095
5.743000,0.9162,0.3268,0.4506,1.072
5.744000,0.9891,0.3735,0.4532,1.150
5.744000,0.9816,0.3916,0.4401,1.145
5.770000,0.8519,0.4730,0.3943,1.051
5.771000,0.7207,0.5890,0.4086,1.017
5.772000,0.5774,0.6201,0.4124,0.942
5.773000,0.4043,0.6154,0.3810,0.829
5.773000,0.3281,0.5975,0.3422,0.763
5.774000,0.2032,0.5642,0.2926,0.667
5.779000,0.1002,0.5895,0.3089,0.673
5.785000,0.0324,0.5850,0.2544,0.639
5.788000,0.0295,0.5983,0.2408,0.646
5.793000,-0.0087,0.5865,0.1851,0.615
5.799000,-0.0286,0.5688,0.1843,0.599
5.803000,-0.0530,0.5630,0.1523,0.586
5.808000,-0.0209,0.4987,0.1438,0.519
5.814000,-0.0103,0.4596,0.1361,0.479
5.818000,0.0090,0.4863,0.1386,0.506
5.823000,0.0415,0.4675,0.1418,0.490
5.829000,0.0729,0.4452,0.1705,0.482
5.834000,0.1127,0.4062,0.2185,0.475
5.839000,0.1659,0.3409,0.1983,0.428
5.844000,0.2095,0.2781,0.1758,0.390
5.860000,0.2606,0.2129,0.1661,0.375
5.861000,0.2870,0.1919,0.1896,0.394
5.862000,0.3232,0.1255,0.2735,0.442
5.866000,0.3954,0.0471,0.2946,0.495
5.869000,0.4296,-0.0229,0.3320,0.543
5.874000,0.3995,-0.0737,0.3845,0.559
5.889000,0.4806,-0.1782,0.2847,0.586
5.890000,0.4938,-0.2170,0.1810,0.569
5.891000,0.4414,-0.2271,0.1710,0.525
5.895000,0.3726,-0.1977,0.2311,0.481
5.904000,0.3107,-0.2079,0.2022,0.425
5.905000,0.2866,-0.2813,0.1325,0.423
5.909000,0.3003,-0.3354,0.1405,0.472
5.917000,0.2465,-0.3236,0.1940,0.451
5.920000,0.1993,-0.3500,0.2226,0.460
5.925000,0.1909,-0.3583,0.2478,0.476
5.931000,0.1891,-0.3892,0.2351,0.492
5.935000,0.1533,-0.3673,0.2719,0.482
5.940000,0.1301,-0.3704,0.2958,0.492
5.945000,0.1626,-0.3806,0.2614,0.490
5.967000,0.1370,-0.3452,0.1961,0.420
5.968000,0.1254,-0.3134,0.1620,0.374
5.969000,0.1229,-0.2565,0.1900,0.342
5.970000,0.1034,-0.1888,0.1796,0.280
5.971000,0.1243,-0.1630,0.1751,0.270
5.975000,0.1440,-0.1253,0.1479,0.241
6.004000,0.1062,-0.0397,0.1724,0.206
6.005000,0.0672,0.0111,0.1793,0.192
6.006000,0.0607,0.0798,0.1851,0.211
6.006000,0.0172,0.1017,0.1625,0.192
6.007000,-0.0451,0.1775,0.2167,0.284
6.007000,-0.0571,0.1635,0.1539,0.232
6.011000,-0.0259,0.1674,0.1046,0.199
6.019000,0.0056,0.1618,0.1236,0.204
6.021000,-0.0259,0.1884,0.1547,0.245
6.026000,-0.0164,0.1587,0.1189,0.199
6.033000,-0.0401,0.1182,0.1084,0.165
6.037000,-0.0707,0.0791,0.1065,0.150
6.041000,0.0040,0.0483,0.0965,0.108
6.046000,0.0201,0.0785,0.0688,0.106
6.059000,-0.0140,0.1554,0.0445,0.162
6.060000,-0.0177,0.1486,-0.0145,0.150
6.061000,0.0605,0.2542,-0.0463,0.265
6.085000,0.0711,0.4842,-0.0688,0.494
6.086000,0.1004,0.7092,-0.2086,0.746
6.087000,0.2233,0.7176,-0.2890,0.805
6.088000,0.2747,0.6505,-0.1915,0.732
6.088000,0.3863,0.6158,-0.1851,0.750
6.092000,0.4891,0.5248,-0.2325,0.754
6.098000,0.4734,0.3404,-0.1448,0.601
6.101000,0.4361,0.2971,-0.1382,0.545
6.107000,0.3878,0.3040,-0.2616,0.558
6.112000,0.3678,0.2605,-0.3666,0.581
6.117000,0.2979,0.1690,-0.3581,0.496
6.122000,0.2335,0.1037,-0.2924,0.388
6.127000,0.1252,0.0875,-0.2813,0.320
6.131000,0.0817,0.0209,-0.1946,0.212
6.137000,0.0385,-0.0923,-0.1743,0.201
6.142000,0.0124,-0.2496,-0.1078,0.272
6.159000,-0.0309,-0.2407,-0.0997,0.262
6.160000,-0.0819,-0.2152,-0.0541,0.236
6.161000,-0.0943,-0.2375,-0.0044,0.256
6.161000,-0.0531,-0.2824,-0.0755,0.297
6.185000,-0.0611,-0.3022,-0.1910,0.363
6.186000,-0.0599,-0.2885,-0.2075,0.360
6.187000,-0.0030,-0.3404,-0.1442,0.370
6.187000,0.0905,-0.4485,-0.0203,0.458
6.188000,0.1754,-0.4799,0.0482,0.513
6.193000,0.2017,-0.5064,0.0592,0.548
6.198000,0.1764,-0.5330,0.0974,0.570
6.203000,0.1571,-0.5475,0.0816,0.575
6.207000,0.2011,-0.5728,0.0739,0.612
6.213000,0.1471,-0.5372,0.1721,0.583
6.218000,0.1193,-0.5386,0.2115,0.591
6.223000,0.1200,-0.5053,0.1886,0.553
6.228000,0.0991,-0.4601,0.1439,0.492
6.233000,0.0544,-0.4007,0.2018,0.452
6.238000,0.0383,-0.3556,0.2333,0.427
6.244000,0.0089,-0.2532,0.1741,0.307
6.249000,-0.0480,-0.1413,0.1236,0.194
6.254000,-0.1460,0.0184,0.2289,0.272
6.259000,-0.1463,0.0645,0.1517,0.220
6.265000,-0.1134,0.1392,0.1083,0.210
6.268000,-0.1133,0.1949,0.1598,0.276
6.274000,-0.1216,0.2733,0.1376,0.329
6.279000,-0.0653,0.3169,0.1109,0.342
6.295000,-0.0422,0.3245,0.0953,0.341
6.296000,-0.1026,0.3632,0.1865,0.421
6.297000,-0.0741,0.3241,0.1438,0.362
6.323000,-0.0895,0.3065,0.1241,0.343
6.324000,-0.1116,0.3056,0.1008,0.341
6.325000,-0.1654,0.3093,0.0787,0.360
6.325000,-0.1609,0.2629,0.0254,0.309
6.326000,-0.2308,0.1281,0.0242,0.265
6.326000,-0.2108,-0.0030,0.0169,0.211
6.330000,-0.2222,0.0141,0.1673,0.278
6.338000,-0.2147,0.0262,0.2006,0.295
6.339000,-0.2508,0.0072,0.0905,0.267
6.345000,-0.2956,0.0036,0.1006,0.312
6.352000,-0.2970,0.0035,0.0619,0.303
6.355000,-0.3808,0.0249,0.0176,0.382
6.360000,-0.3688,-0.0576,0.0085,0.373
6.374000,-0.2481,-0.0874,0.0095,0.263
6.375000,-0.1835,-0.0849,-0.0547,0.209
6.376000,-0.1907,-0.0812,-0.0685,0.218
6.379000,-0.2217,-0.1002,-0.0032,0.243
6.396000,-0.1513,-0.1334,-0.0392,0.206
6.397000,-0.0596,-0.1331,-0.1171,0.187
6.397000,-0.0421,-0.1389,-0.0621,0.158
6.400000,-0.0642,-0.1517,0.0120,0.165
6.405000,0.0392,-0.1370,-0.0884,0.168
6.409000,0.1291,-0.1809,-0.1462,0.266
6.415000,0.0803,-0.1422,-0.0130,0.164
6.420000,0.0721,-0.1037,-0.0070,0.127
6.425000,0.1260,-0.1417,-0.0921,0.211
6.430000,0.1500,-0.1713,-0.1346,0.264
6.435000,0.1562,-0.1544,-0.1093,0.245
6.440000,0.1240,-0.1602,-0.0870,0.220
6.445000,0.0404,-0.1779,-0.0650,0.194
6.450000,0.0093,-0.2040,-0.0720,0.217
6.455000,-0.0123,-0.1703,-0.0603,0.181
6.461000,-0.0090,-0.1904,-0.0046,0.191
6.466000,-0.0488,-0.1496,0.0077,0.157
6.471000,-0.0289,-0.1398,0.0115,0.143
6.476000,-0.0174,-0.1659,-0.0195,0.168
6.483000,-0.0275,-0.1227,0.0655,0.142
6.493000,-0.1202,-0.0710,0.2752,0.309
6.495000,-0.0602,-0.0600,0.0859,0.121
6.512000,0.0619,-0.0788,-0.1186,0.155
6.514000,0.0632,-0.0475,-0.0816,0.114
6.514000,0.0025,-0.0090,0.0725,0.073
6.515000,0.0778,0.0091,0.0199,0.081
6.519000,0.1759,0.0201,-0.0914,0.199
6.521000,0.1820,0.0370,-0.0939,0.208
6.526000,0.1693,0.0489,0.0215,0.177
6.544000,0.1543,0.0453,0.0328,0.164
6.545000,0.1621,0.0165,-0.0564,0.172
6.546000,0.1763,0.0625,-0.0580,0.196
6.547000,0.1883,0.0831,-0.0067,0.206
6.556000,0.1233,0.1450,0.0227,0.192
6.557000,0.1102,0.0959,-0.0217,0.148
6.562000,0.0939,0.1018,-0.0206,0.140
6.569000,0.0791,0.0898,-0.0040,0.120
6.572000,0.0279,0.1099,0.0303,0.117
6.577000,-0.0025,0.0764,0.0109,0.077
6.583000,0.0268,0.0526,-0.0201,0.062
6.587000,0.0229,0.0765,-0.0116,0.081
6.593000,-0.0106,0.0776,-0.0211,0.081
6.597000,0.0062,0.0585,-0.0258,0.064
6.602000,-0.0126,0.0454,-0.0006,0.047
6.607000,0.0103,0.0159,0.0482,0.052
6.612000,0.0343,0.0150,0.0111,0.039
6.627000,-0.0202,-0.0095,0.0182,0.029
6.628000,-0.0103,-0.0445,0.0562,0.072
6.628000,0.0483,-0.0840,0.0299,0.101
6.655000,0.0803,-0.0769,0.0191,0.113
6.656000,0.0612,-0.0936,0.0238,0.114
6.657000,0.0542,-0.0793,0.0144,0.097
6.657000,0.0616,-0.1209,0.0003,0.136
6.658000,0.0678,-0.1278,-0.0114,0.145
6.659000,0.0811,-0.1240,-0.0324,0.152
6.663000,0.0789,-0.1213,-0.0461,0.152
6.668000,0.0292,-0.1282,-0.0681,0.148
6.673000,0.0583,-0.1434,-0.0556,0.164
6.678000,0.0977,-0.1500,-0.0739,0.194
6.683000,0.0811,-0.1389,-0.0658,0.174
6.688000,0.0801,-0.1361,-0.0672,0.172
6.694000,0.0945,-0.1131,-0.0636,0.161
6.698000,0.0316,-0.0939,-0.0385,0.106
6.703000,0.0759,-0.1175,-0.0338,0.144
6.708000,0.1008,-0.1184,-0.0210,0.157
6.713000,0.0853,-0.1728,0.0440,0.198
6.724000,0.0829,-0.1138,0.0744,0.159
6.725000,0.0867,-0.0709,0.0712,0.133
6.728000,0.0844,-0.1125,0.1441,0.201
6.748000,0.0395,-0.0957,0.0442,0.113
6.749000,-0.0037,-0.0588,-0.0236,0.063
6.750000,-0.0276,-0.0174,-0.0680,0.075
6.751000,-0.0181,0.0319,-0.1641,0.168
6.754000,-0.0290,0.0619,-0.1609,0.175
6.759000,-0.0196,0.0595,-0.1782,0.189
6.764000,-0.0176,0.0548,-0.1495,0.160
6.770000,0.0116,0.0276,-0.1153,0.119
6.774000,0.0085,0.0208,-0.0995,0.102
6.779000,0.0400,-0.0324,-0.0511,0.073
6.785000,0.0382,-0.0673,-0.0342,0.085
6.790000,0.0176,-0.0747,-0.0295,0.082
6.795000,0.0139,-0.1035,-0.0858,0.135
6.810000,0.0247,-0.1368,-0.0566,0.150
6.811000,0.0094,-0.1770,-0.0480,0.184
6.811000,-0.0139,-0.1529,0.0005,0.154
6.815000,-0.0498,-0.0993,-0.0427,0.119
6.835000,-0.0762,-0.0591,-0.0393,0.104
6.836000,-0.0989,-0.0264,-0.0146,0.103
6.836000,-0.1572,-0.0082,-0.0112,0.158
6.837000,-0.1512,0.0575,-0.0491,0.169
6.840000,-0.1348,0.1144,-0.0422,0.182
6.845000,-0.1235,0.1056,-0.0280,0.165
6.853000,-0.1101,0.0933,-0.0810,0.165
6.855000,-0.1136,0.1050,-0.0336,0.158
6.861000,-0.1042,0.0703,-0.0328,0.130
6.867000,-0.0772,0.0882,-0.0222,0.119
6.871000,-0.0292,0.0478,-0.0176,0.059
6.876000,0.0135,0.0552,-0.0166,0.059
6.880000,-0.0011,0.0697,-0.0121,0.071
6.885000,0.0152,0.0508,0.0305,0.061
6.890000,-0.0006,0.0309,-0.0079,0.032
6.896000,0.0098,0.0326,0.0157,0.037
6.900000,0.0011,0.0425,-0.0010,0.043
6.906000,-0.0645,0.1023,0.0040,0.121
6.911000,-0.0692,0.0880,0.0175,0.113
6.928000,-0.0609,0.0798,0.0252,0.103
6.929000,-0.0967,0.1133,0.0225,0.151
6.930000,-0.1005,0.1085,-0.0178,0.149
6.932000,-0.1138,0.0837,-0.0207,0.143
6.962000,-0.0714,0.0722,-0.0067,0.102
6.963000,-0.0699,0.1059,0.0026,0.127
6.964000,-0.0341,0.0824,-0.0332,0.095
6.964000,-0.0082,0.0793,-0.0712,0.107
6.965000,-0.0147,0.0490,-0.0636,0.082
6.965000,0.0477,0.0545,-0.0131,0.074
6.966000,0.0490,0.0600,-0.0213,0.080
6.976000,0.0541,0.0227,-0.0341,0.068
6.977000,0.0641,0.0391,-0.0314,0.081
6.982000,0.0764,0.0434,-0.0263,0.092
6.988000,0.0733,0.0299,-0.0356,0.087
6.992000,0.0786,0.0058,-0.0257,0.083
6.997000,0.0637,0.0056,-0.0101,0.065
7.003000,0.0847,-0.0242,-0.0265,0.092
7.007000,0.0890,-0.0348,-0.0342,0.102
7.012000,0.0636,-0.0501,-0.0004,0.081
7.027000,0.0681,-0.1008,-0.0107,0.122
7.028000,0.0585,-0.0918,-0.0410,0.116
7.029000,0.0348,-0.0722,-0.0425,0.091
7.032000,0.0625,-0.0848,-0.0203,0.107
7.051000,0.0140,-0.0570,-0.0494,0.077
7.052000,-0.0008,-0.0543,-0.0353,0.065
7.053000,-0.0155,-0.0541,-0.0642,0.085
7.054000,-0.0017,-0.0538,-0.1071,0.120
7.058000,-0.0294,-0.0500,-0.0974,0.113
7.063000,-0.0248,-0.0462,-0.0653,0.084
7.068000,-0.0512,0.0075,-0.0230,0.057
7.073000,-0.0441,-0.0094,-0.0509,0.068
7.078000,-0.0408,-0.0356,-0.0298,0.062
7.085000,-0.0623,-0.0462,-0.0399,0.087
7.088000,-0.0432,-0.0578,0.0059,0.072
7.094000,-0.0550,-0.0706,-0.0188,0.091
7.099000,-0.0619,-0.0632,-0.0030,0.089
7.104000,-0.0591,-0.0629,0.0020,0.086
7.109000,-0.0799,-0.0674,-0.0169,0.106
7.114000,-0.0743,-0.0374,-0.0332,0.090
7.118000,-0.0439,-0.0149,-0.0409,0.062
7.124000,-0.0602,-0.0292,-0.0486,0.083
7.129000,-0.0693,0.0230,-0.0574,0.093
7.147000,-0.0820,0.0250,-0.0588,0.104
7.150000,-0.0615,-0.0146,-0.0994,0.118
7.151000,-0.0804,0.0103,-0.1112,0.138
7.152000,-0.0387,0.0243,-0.0720,0.085
7.154000,-0.0567,0.0085,-0.0996,0.115
7.159000,-0.0297,-0.0047,-0.0594,0.067
7.164000,-0.0409,-0.0107,-0.0753,0.086
7.181000,0.0193,-0.0203,-0.0758,0.081
7.183000,-0.0208,-0.0060,-0.0490,0.054
7.183000,-0.0143,-0.0310,-0.0473,0.058
7.186000,-0.0387,-0.0012,-0.0991,0.106
7.196000,-0.0690,0.0023,-0.0769,0.103
7.197000,-0.0256,-0.0418,-0.0644,0.081
7.210000,0.0054,-0.0486,-0.0713,0.086
7.211000,-0.0124,-0.0388,-0.0425,0.059
7.211000,-0.0337,-0.0350,-0.0462,0.067
7.215000,-0.0619,-0.0277,-0.0108,0.069
7.220000,-0.0115,-0.0502,-0.0209,0.056
7.225000,-0.0539,-0.0558,-0.0012,0.078
7.230000,-0.0817,-0.0496,-0.0209,0.098
7.235000,-0.0690,-0.0422,0.0108,0.082
7.240000,-0.0564,-0.0052,-0.0207,0.060
7.245000,-0.0582,-0.0290,-0.0378,0.075
7.249000,-0.0719,-0.0111,-0.0523,0.090
7.262000,-0.0737,-0.0052,-0.0812,0.110
7.264000,-0.0636,-0.0148,-0.0684,0.095
7.266000,-0.0537,-0.0219,-0.0606,0.084
7.291000,-0.0712,0.0102,-0.0485,0.087
7.292000,-0.0967,-0.0044,-0.0509,0.109
7.293000,-0.0970,-0.0081,-0.0535,0.111
7.293000,-0.1081,0.0095,-0.0442,0.117
7.294000,-0.1191,0.0318,-0.0336,0.128
7.296000,-0.1383,0.0325,-0.0206,0.144
7.306000,-0.1386,0.0404,-0.0135,0.145
7.307000,-0.1186,0.0138,0.0019,0.119
7.311000,-0.1049,0.0005,0.0041,0.105
7.316000,-0.0687,-0.0138,0.0384,0.080
7.321000,-0.0471,-0.0198,0.0737,0.090
7.326000,-0.0162,-0.0518,0.1097,0.122
7.331000,-0.0104,-0.1180,0.1431,0.186
7.336000,0.0038,-0.1159,0.1206,0.167
7.341000,0.0072,-0.1091,0.1187,0.161
7.346000,-0.0036,-0.0846,0.0031,0.085
7.362000,-0.0299,-0.0614,-0.0297,0.074
7.363000,-0.0358,-0.0503,-0.1003,0.118
7.363000,-0.0241,-0.0155,-0.1777,0.180
7.369000,-0.0376,0.0166,-0.1585,0.164
7.388000,-0.0403,0.0449,-0.1229,0.137
7.389000,-0.0181,0.0326,-0.1021,0.109
7.390000,-0.0329,0.0441,-0.0378,0.067
7.391000,-0.0510,-0.0063,-0.0193,0.055
7.391000,-0.0416,-0.0503,0.0036,0.065
7.397000,-0.0618,-0.0976,0.0140,0.116
7.402000,-0.0400,-0.1126,0.0002,0.119
7.406000,-0.0479,-0.1013,0.0231,0.114
7.412000,-0.0224,-0.0890,-0.0031,0.092
7.418000,-0.0327,-0.0887,0.0087,0.095
7.422000,-0.0203,-0.0112,0.0191,0.030
7.427000,-0.0116,0.0241,0.0130,0.030
7.432000,-0.0259,0.0473,-0.0021,0.054
7.437000,-0.0213,0.1048,-0.0371,0.113
7.442000,-0.0203,0.0883,-0.0404,0.099
7.447000,-0.0102,0.1123,-0.0635,0.129
7.452000,-0.0312,0.1007,-0.1099,0.152
7.457000,-0.0153,0.1057,-0.0975,0.145
7.463000,-0.0283,0.0930,-0.0816,0.127
7.469000,-0.0137,0.0566,-0.0719,0.092
7.473000,-0.0040,0.0169,-0.0516,0.054
7.477000,-0.0313,-0.0106,-0.0495,0.060
7.483000,-0.0451,-0.0331,0.0141,0.058
7.498000,-0.0397,-0.0520,0.0202,0.068
7.499000,-0.0497,-0.0694,-0.0034,0.085
7.500000,-0.0452,-0.0856,0.0134,0.098
7.527000,-0.0597,-0.0886,0.0504,0.118
7.528000,-0.0313,-0.0714,0.0160,0.080
7.529000,-0.0317,-0.0887,-0.0158,0.096
7.530000,-0.0440,-0.0703,0.0156,0.084
7.530000,-0.0574,-0.0342,-0.0255,0.072
7.531000,-0.0245,-0.0257,-0.0247,0.043
7.534000,-0.0263,-0.0208,-0.0526,0.062
7.542000,-0.0245,-0.0457,-0.0767,0.093
7.543000,-0.0240,-0.0502,-0.0581,0.080
7.549000,-0.0355,-0.0249,-0.0955,0.105
7.555000,-0.0015,0.0001,-0.0545,0.054
7.559000,-0.0058,0.0082,-0.0435,0.045
7.564000,-0.0515,0.0068,-0.0279,0.059
7.569000,-0.0575,0.0528,-0.0504,0.093
7.574000,-0.0445,0.0664,-0.0645,0.103
7.579000,0.0171,0.0775,-0.0583,0.098
7.584000,0.0188,0.0695,-0.0652,0.097
7.596000,0.0015,0.0604,-0.0292,0.067
7.598000,0.0058,0.0383,0.0017,0.039
7.600000,0.0030,0.0390,-0.0069,0.040
7.622000,-0.0330,0.0088,-0.0273,0.044
7.623000,-0.0235,-0.0201,-0.0154,0.035
7.623000,-0.0118,-0.0059,-0.0086,0.016
7.624000,-0.0345,-0.0311,-0.0256,0.053
7.625000,-0.0402,-0.0097,-0.0163,0.044
7.629000,-0.0424,-0.0503,-0.0167,0.068
7.636000,-0.0231,-0.0680,-0.0052,0.072
7.640000,-0.0350,-0.0594,-0.0188,0.071
7.645000,-0.0432,-0.0628,0.0141,0.077
7.649000,-0.0133,-0.0554,0.0409,0.070
7.655000,-0.0159,-0.0445,0.0306,0.056
7.660000,-0.0245,-0.0289,0.0324,0.050
7.665000,0.0073,-0.0241,0.0404,0.048
7.669000,-0.0052,-0.0348,0.0400,0.053
7.675000,0.0060,-0.0560,0.0256,0.062
7.680000,0.0207,-0.0236,0.0209,0.038
7.701000,0.0245,-0.0473,0.0412,0.067
7.703000,0.0318,-0.0150,0.0328,0.048
7.704000,0.0580,0.0230,0.0149,0.064
7.705000,0.0151,0.0144,0.0115,0.024
7.707000,-0.0110,0.0024,0.0224,0.025
7.713000,0.0024,-0.0334,0.0331,0.047
7.715000,-0.0140,-0.0332,0.0258,0.044
7.742000,-0.0102,-0.0437,0.0126,0.047
7.743000,-0.0182,-0.0304,-0.0053,0.036
7.744000,-0.0072,-0.0445,0.0196,0.049
7.744000,-0.0248,-0.0407,0.0038,0.048
7.745000,-0.0186,-0.0512,-0.0072,0.055
7.746000,-0.0349,-0.0319,0.0045,0.047
7.757000,-0.0025,-0.0341,0.0421,0.054
7.758000,0.0166,-0.0375,0.0093,0.042
7.761000,-0.0191,-0.0456,0.0397,0.063
7.766000,0.0085,-0.0370,0.0248,0.045
7.771000,-0.0082,-0.0428,-0.0018,0.044
7.777000,-0.0199,-0.0508,-0.0222,0.059
7.781000,-0.0079,-0.0434,-0.0079,0.045
7.797000,0.0136,0.0008,-0.0033,0.014
7.798000,0.0027,-0.0266,-0.0141,0.030
7.798000,0.0169,-0.0170,0.0369,0.044
7.801000,0.0535,-0.0098,0.0164,0.057
7.822000,0.0281,-0.0122,0.0506,0.059
7.823000,0.0207,-0.0098,0.0573,0.062
7.824000,0.0300,-0.0110,0.0627,0.070
7.824000,0.0453,-0.0371,0.0503,0.077
7.827000,0.0628,-0.0013,0.0451,0.077
7.832000,0.0399,0.0117,0.0031,0.042
7.837000,-0.0066,0.0079,-0.0041,0.011
7.842000,0.0019,0.0066,-0.0089,0.011
7.847000,0.0045,-0.0067,-0.0066,0.010
7.853000,0.0307,0.0217,-0.0364,0.052
7.857000,-0.0087,-0.0035,-0.0530,0.054
7.862000,-0.0311,-0.0285,0.0053,0.042
7.867000,-0.0295,-0.0343,-0.0225,0.051
7.872000,-0.0600,-0.0461,-0.0274,0.080
7.877000,-0.0426,0.0041,-0.0558,0.070
7.882000,-0.0205,0.0205,-0.0577,0.065
7.887000,-0.0224,0.0309,-0.0523,0.065
7.893000,-0.0470,0.0187,-0.0230,0.056
7.898000,-0.0109,-0.0326,-0.0332,0.048
7.916000,0.0332,-0.0347,0.0042,0.048
7.918000,0.0247,-0.0440,0.0531,0.073
7.918000,0.0604,-0.0841,0.0979,0.143
7.919000,0.0982,-0.1417,0.1529,0.230
7.948000,0.0849,-0.1965,0.1350,0.253
7.950000,0.0555,-0.1262,0.1592,0.211
7.950000,0.0288,-0.0767,0.0339,0.089
7.951000,0.0544,-0.0524,-0.0383,0.085
7.951000,0.0512,-0.0510,-0.0923,0.117
7.952000,0.0361,-0.0104,-0.0819,0.090
7.955000,0.0302,0.0180,-0.1205,0.126
7.959000,0.0206,0.0641,-0.1672,0.180
7.964000,0.0170,0.0622,-0.1175,0.134
7.970000,0.0135,0.0378,-0.0851,0.094
7.974000,0.0030,0.0408,-0.0566,0.070
7.979000,0.0116,-0.0132,0.0141,0.023
7.983000,0.0405,-0.0442,0.0284,0.066
7.990000,0.0434,-0.0501,0.0244,0.071
7.994000,0.0476,-0.0679,0.0142,0.084
7.999000,0.0733,-0.0856,0.0204,0.115
8.006000,0.0704,-0.0628,0.0385,0.102
8.009000,0.0558,-0.0319,0.0540,0.084
8.014000,0.0328,-0.0178,0.0220,0.043
8.032000,0.0171,0.0092,0.0307,0.036
8.033000,0.0357,0.0587,0.0447,0.082
8.034000,-0.0031,0.0876,0.0470,0.099
8.035000,0.0177,0.0772,0.0142,0.080
8.066000,0.0154,0.1144,0.0141,0.116
8.067000,0.0414,0.1170,0.0084,0.124
8.067000,0.0148,0.0602,-0.0327,0.070
8.068000,0.0181,0.0217,-0.0557,0.062
8.071000,0.0321,-0.0165,-0.0252,0.044
8.072000,0.0057,-0.0153,-0.0247,0.030
8.073000,0.0200,-0.0496,-0.0042,0.054
8.075000,0.0164,-0.0422,0.0313,0.055
8.080000,-0.0346,-0.0242,0.0095,0.043
8.087000,-0.0173,-0.0360,-0.0027,0.040
8.091000,-0.0026,-0.0560,0.0067,0.057
8.095000,-0.0154,0.0001,0.0044,0.016
8.100000,0.0028,0.0119,0.0117,0.017
8.105000,-0.0017,0.0366,-0.0032,0.037
8.110000,0.0091,-0.0029,-0.0298,0.031
8.115000,0.0280,0.0340,-0.0428,0.061
8.131000,0.0396,0.0396,-0.0735,0.092
8.132000,0.0486,0.0453,-0.0732,0.099
8.132000,0.0646,0.0200,-0.0789,0.104
8.136000,0.0829,-0.0051,-0.1062,0.135
8.157000,0.0691,-0.0146,-0.1061,0.127
8.157000,0.0473,-0.0110,-0.0491,0.069
8.158000,0.0602,-0.0074,-0.0083,0.061
8.159000,0.0766,-0.0158,-0.0202,0.081
8.160000,0.0407,0.0020,-0.0107,0.042
8.166000,0.0420,-0.0089,-0.0239,0.049
8.170000,0.0196,-0.0055,0.0080,0.022
8.176000,0.0401,-0.0246,-0.0103,0.048
8.181000,0.0012,-0.0032,-0.0058,0.007
8.187000,-0.0018,-0.0010,0.0438,0.044
8.190000,-0.0036,-0.0190,0.0040,0.020
8.196000,-0.0089,-0.0108,0.0025,0.014
8.201000,-0.0273,-0.0025,-0.0000,0.027
8.206000,-0.0334,-0.0336,-0.0024,0.047
8.211000,-0.0218,-0.0228,0.0060,0.032
8.216000,-0.0317,-0.0275,-0.0367,0.056
8.221000,-0.0308,-0.0120,-0.0234,0.040
8.226000,-0.0346,0.0069,0.0136,0.038
8.232000,0.0151,0.0019,0.0134,0.020
8.248000,0.0122,-0.0019,-0.0022,0.013
8.250000,0.0270,-0.0104,-0.0153,0.033
8.250000,0.0082,0.0085,-0.0283,0.031
8.279000,0.0361,0.0071,-0.0008,0.037
8.280000,0.0636,0.0366,-0.0434,0.085
8.280000,0.0469,0.0397,-0.0464,0.077
8.281000,0.0410,0.0179,-0.0255,0.051
8.282000,0.0494,0.0105,-0.0628,0.081
8.283000,0.0707,0.0068,-0.0369,0.080
8.283000,0.0455,0.0090,-0.0375,0.060
8.293000,0.0432,-0.0078,-0.0332,0.055
8.294000,0.0278,-0.0114,-0.0278,0.041
8.297000,0.0541,-0.0103,-0.0141,0.057
8.306000,0.0149,-0.0281,-0.0149,0.035
8.308000,0.0082,-0.0173,-0.0013,0.019
8.313000,0.0110,-0.0280,-0.0010,0.030
8.317000,-0.0112,-0.0267,-0.0103,0.031
8.322000,-0.0131,-0.0111,0.0186,0.025
8.328000,-0.0150,-0.0147,0.0009,0.021
8.333000,-0.0132,-0.0195,-0.0024,0.024
8.346000,-0.0175,-0.0586,0.0027,0.061
8.347000,-0.0335,-0.0428,-0.0031,0.054
8.348000,-0.0043,-0.0426,-0.0017,0.043
8.353000,-0.0182,-0.0376,-0.0063,0.042
8.376000,0.0013,-0.0433,-0.0073,0.044
8.377000,-0.0232,-0.0229,-0.0107,0.034
8.377000,-0.0249,-0.0110,-0.0366,0.046
8.378000,0.0279,-0.0336,-0.0445,0.062
8.378000,0.0256,-0.0572,-0.0061,0.063
8.384000,0.0209,-0.0283,-0.0003,0.035
8.388000,0.0484,-0.0449,-0.0135,0.067
8.393000,0.0399,-0.0292,-0.0029,0.050
8.398000,0.0873,-0.0160,0.0075,0.089
8.405000,0.0774,-0.0208,0.0250,0.084
8.409000,0.0569,-0.0327,0.0305,0.072
8.414000,0.0710,-0.0136,0.0217,0.076
8.419000,0.0613,-0.0124,0.0390,0.074
8.424000,0.0494,0.0113,0.0076,0.051
8.429000,0.0624,0.0335,0.0109,0.072
8.434000,0.0421,0.0236,-0.0012,0.048
8.438000,0.0491,0.0079,-0.0215,0.054
8.444000,0.0323,0.0231,-0.0107,0.041
8.450000,0.0251,-0.0093,-0.0096,0.028
8.470000,0.0370,-0.0224,-0.0488,0.065
8.471000,0.0109,-0.0069,-0.0142,0.019
8.472000,0.0086,-0.0224,-0.0178,0.030
8.474000,0.0325,0.0050,-0.0580,0.067
8.475000,0.0194,-0.0047,-0.0325,0.038
8.480000,0.0193,0.0060,-0.0488,0.053
8.484000,0.0334,0.0106,-0.0340,0.049
8.508000,0.0461,-0.0192,0.0400,0.064
8.509000,0.0421,-0.0678,0.0730,0.108
8.509000,0.0347,-0.0851,0.0713,0.116
8.510000,0.0808,-0.0786,0.1169,0.162
8.511000,0.0863,-0.1196,0.1704,0.225
8.515000,0.1026,-0.1093,0.1168,0.190
8.522000,0.0667,-0.0515,0.0747,0.113
8.525000,0.0121,-0.0262,-0.0309,0.042
8.530000,-0.0053,-0.0047,-0.0941,0.094
8.535000,-0.0393,0.0297,-0.0961,0.108
8.541000,0.0122,0.0329,-0.0795,0.087
8.545000,0.0216,0.0409,-0.0857,0.097
8.550000,0.0356,0.0785,-0.0905,0.125
8.568000,0.0329,0.0944,-0.0799,0.128
8.569000,0.0125,0.0971,-0.0600,0.115
8.573000,0.0044,0.0642,-0.0617,0.089
8.574000,0.0129,0.0148,-0.0508,0.054
8.574000,0.0095,-0.0247,-0.0343,0.043
8.580000,0.0063,-0.0247,0.0066,0.026
8.585000,0.0114,-0.0865,-0.0186,0.089
8.603000,0.0522,-0.0635,-0.0033,0.082
8.604000,0.0441,-0.0455,0.0426,0.076
8.605000,0.0254,-0.0300,0.0299,0.049
8.605000,0.0542,-0.0206,0.0283,0.065
8.611000,0.0423,0.0114,0.0270,0.051
8.616000,-0.0101,0.0337,0.0403,0.053
8.622000,0.0076,0.0369,0.0124,0.040
8.625000,0.0690,0.0413,-0.0030,0.080
8.630000,0.0776,-0.0160,-0.0286,0.084
8.636000,0.0599,-0.0004,-0.0193,0.063
8.641000,0.0614,-0.0170,-0.0220,0.067
8.646000,0.0592,-0.0512,0.0264,0.083
8.651000,0.0392,-0.0768,-0.0373,0.094
8.656000,0.0361,-0.0714,-0.0366,0.088
8.661000,0.0128,-0.0768,-0.0384,0.087
8.666000,0.0205,-0.0904,-0.0058,0.093
8.681000,-0.0026,-0.0564,0.0015,0.056
8.682000,0.0136,-0.0690,0.0264,0.075
8.683000,0.0141,-0.0446,0.0156,0.049
8.687000,0.0300,-0.0063,0.0144,0.034
8.713000,0.0386,-0.0133,-0.0009,0.041
8.714000,0.0508,0.0071,-0.0206,0.055
8.714000,0.0532,0.0451,-0.0032,0.070
8.715000,0.0424,0.0211,-0.0297,0.056
8.715000,0.0578,0.0412,-0.0166,0.073
8.717000,0.0624,0.0719,-0.0334,0.101
8.726000,0.0777,0.0607,-0.0478,0.110
8.727000,0.1237,0.0437,-0.0550,0.142
8.732000,0.1100,0.0387,-0.0468,0.126
8.739000,0.0965,0.0230,-0.0650,0.119
8.743000,0.1058,0.0395,-0.0179,0.114
8.747000,0.1164,0.0249,0.0562,0.132
8.753000,0.1114,0.0057,0.0489,0.122
8.757000,0.0746,0.0365,-0.0047,0.083
8.763000,0.0524,0.0196,0.0027,0.056
8.767000,0.0339,0.0562,-0.0220,0.069
8.773000,0.0382,0.0011,-0.0216,0.044
8.778000,0.0140,0.0343,-0.0069,0.038
8.783000,-0.0030,0.0079,-0.0208,0.022
8.797000,-0.0161,0.0006,-0.0179,0.024
8.798000,-0.0459,-0.0112,-0.0149,0.050
8.799000,-0.0138,0.0091,-0.0393,0.043
8.802000,0.0217,-0.0468,-0.0232,0.057
8.826000,0.0201,-0.0453,-0.0404,0.064
8.827000,0.0387,-0.0306,-0.0172,0.052
8.828000,0.0203,-0.0707,-0.0036,0.074
8.828000,0.0187,-0.0547,-0.0020,0.058
8.829000,0.0373,-0.0507,-0.0170,0.065
8.834000,0.0534,-0.0717,0.0097,0.090
8.840000,0.0419,-0.0806,0.0101,0.091
8.843000,0.0840,-0.0597,-0.0393,0.110
8.849000,0.1079,-0.0366,-0.0016,0.114
8.854000,0.0960,-0.0754,-0.0057,0.122
8.859000,0.0903,-0.0333,-0.0371,0.103
8.864000,0.0892,-0.0377,-0.0277,0.101
8.869000,0.0799,-0.0314,-0.0435,0.096
8.875000,0.0755,-0.0300,-0.0198,0.084
8.879000,0.0842,-0.0439,-0.0191,0.097
8.884000,0.0619,-0.0198,-0.0266,0.070
8.901000,0.0280,-0.0303,-0.0091,0.042
8.903000,0.0277,-0.0039,-0.0000,0.028
8.903000,0.0428,-0.0265,0.0030,0.050
8.931000,0.0174,-0.0286,0.0001,0.033
8.933000,0.0443,0.0013,0.0080,0.045
8.933000,0.0533,-0.0082,0.0087,0.055
8.934000,0.0443,-0.0140,-0.0097,0.047
8.935000,0.0259,-0.0245,-0.0041,0.036
8.935000,0.0493,0.0065,-0.0200,0.054
8.936000,0.0546,0.0006,-0.0133,0.056
8.946000,0.0634,0.0018,0.0217,0.067
8.947000,0.0732,-0.0172,-0.0231,0.079
8.950000,0.0675,-0.0218,0.0189,0.073
8.955000,0.0404,-0.0193,-0.0225,0.050
8.961000,0.0623,-0.0262,-0.0067,0.068
8.965000,0.0422,-0.0521,-0.0349,0.076
8.970000,0.0592,-0.0184,-0.0120,0.063
8.975000,0.0309,-0.0135,-0.0093,0.035
8.980000,0.0659,0.0068,-0.0280,0.072
8.985000,0.0446,0.0056,-0.0348,0.057
8.990000,0.0212,0.0020,0.0060,0.022
8.995000,0.0550,0.0305,0.0157,0.065
9.000000,0.0232,0.0017,0.0241,0.034
9.006000,0.0226,-0.0197,0.0111,0.032
9.010000,0.0256,-0.0266,0.0255,0.045
9.015000,0.0333,-0.0857,0.0151,0.093
9.021000,0.0519,-0.0470,-0.0026,0.070
9.036000,0.0490,-0.0313,-0.0130,0.060
9.037000,0.0520,-0.0322,-0.0221,0.065
9.037000,0.0682,-0.0878,-0.0299,0.115
9.067000,0.0425,-0.0396,-0.0210,0.062
9.068000,0.0493,0.0070,-0.0336,0.060
9.069000,0.0833,-0.0240,-0.0164,0.088
9.069000,0.0884,-0.0155,-0.0362,0.097
9.070000,0.0660,0.0107,-0.0606,0.090
9.071000,0.0617,-0.0262,-0.0552,0.087
9.073000,0.0479,-0.0058,-0.1008,0.112
9.082000,0.0390,0.0132,-0.0497,0.065
9.083000,0.0514,0.0286,-0.0346,0.068
9.087000,0.0138,-0.0061,-0.0435,0.046
9.096000,0.0264,-0.0429,-0.0478,0.069
9.097000,0.0747,-0.0924,-0.0010,0.119
9.102000,0.0253,-0.0715,0.0644,0.099
9.107000,0.0773,-0.0923,0.0829,0.146
9.112000,0.0875,-0.1451,0.0975,0.195
9.117000,0.0705,-0.1678,0.1688,0.248
9.135000,0.0551,-0.1191,0.1507,0.200
9.137000,0.0400,-0.1100,0.0415,0.124
9.137000,0.0203,-0.0594,-0.0668,0.092
9.138000,-0.0101,-0.0354,-0.1313,0.136
9.169000,-0.0072,0.0455,-0.1481,0.155
9.170000,0.0110,0.0402,-0.1079,0.116
9.171000,0.0112,0.0338,-0.0791,0.087
9.172000,0.0198,0.0404,-0.0470,0.065
9.173000,0.0249,0.0494,0.0028,0.055
9.173000,0.0077,0.0202,-0.0310,0.038
9.174000,-0.0389,0.0221,-0.0947,0.105
9.177000,-0.0256,-0.0093,-0.0939,0.098
9.183000,-0.0171,-0.0346,-0.0638,0.075
9.188000,-0.0051,-0.0312,-0.0629,0.070
9.192000,-0.0049,-0.0362,-0.0135,0.039
9.198000,-0.0024,-0.0448,0.0008,0.045
9.204000,-0.0001,-0.0033,0.0414,0.042
9.208000,0.0117,0.0176,0.0355,0.041
9.213000,0.0160,-0.0019,0.0372,0.041
9.218000,0.0167,0.0346,0.0392,0.055
9.234000,0.0375,0.0483,0.0511,0.080
9.235000,-0.0097,0.0192,0.0313,0.038
9.236000,-0.0127,0.0070,-0.0048,0.015
9.260000,0.0685,-0.0122,-0.0427,0.082
9.261000,0.0908,-0.0099,-0.0280,0.096
9.262000,0.0478,-0.0230,-0.0183,0.056
9.263000,0.0434,-0.0254,-0.0231,0.055
9.263000,0.0245,-0.0182,-0.0172,0.035
9.264000,0.0046,-0.0147,-0.0257,0.030
9.269000,-0.0078,-0.0160,-0.0024,0.018
9.274000,-0.0001,-0.0446,-0.0031,0.045
9.278000,-0.0161,-0.0196,-0.0049,0.026
9.284000,-0.0390,0.0017,-0.0044,0.039
9.289000,-0.0251,-0.0044,-0.0085,0.027
9.294000,-0.0268,0.0037,0.0232,0.036
9.299000,-0.0236,0.0213,-0.0105,0.033
9.304000,-0.0181,0.0091,-0.0365,0.042
9.309000,-0.0068,0.0266,-0.0314,0.042
9.314000,-0.0097,0.0215,-0.0689,0.073
9.319000,0.0478,-0.0061,-0.0861,0.099
9.326000,0.0386,-0.0039,-0.0355,0.053
9.329000,0.0355,-0.0029,-0.0783,0.086
9.334000,0.0514,-0.0007,-0.0578,0.077
9.339000,0.0494,-0.0200,-0.0341,0.063
9.352000,0.0380,-0.0082,0.0036,0.039
9.353000,0.0613,0.0058,0.0339,0.070
9.355000,0.0525,0.0078,0.0416,0.067
9.389000,0.0176,0.0087,-0.0243,0.031
9.390000,0.0352,0.0226,-0.0398,0.058
9.391000,0.0194,0.0102,-0.0528,0.057
9.391000,0.0191,0.0514,-0.0585,0.080
9.392000,-0.0084,0.0472,-0.0665,0.082
9.393000,0.0070,0.0358,-0.0413,0.055
9.393000,0.0163,0.0151,-0.0649,0.069
9.395000,-0.0041,-0.0364,-0.0517,0.063
9.400000,0.0018,-0.0352,-0.0657,0.075
9.405000,0.0256,-0.0364,-0.0275,0.052
9.409000,0.0289,-0.0304,-0.0275,0.050
9.415000,0.0131,-0.0257,-0.0217,0.036
9.421000,0.0166,-0.0448,-0.0562,0.074
9.426000,0.0199,-0.0197,-0.0452,0.053
9.430000,0.0340,-0.0115,-0.0580,0.068
9.436000,0.0348,-0.0615,-0.0410,0.082
9.460000,0.0487,-0.0482,-0.0311,0.075
9.462000,0.0458,-0.0588,-0.0509,0.090
9.463000,0.0607,-0.0312,-0.0751,0.102
9.464000,0.0388,-0.0145,-0.0483,0.064
9.465000,0.0597,-0.0158,-0.0478,0.078
9.465000,0.0389,-0.0076,-0.0509,0.064
9.471000,0.0657,-0.0149,-0.0314,0.074
9.509000,0.0628,-0.0293,-0.0238,0.073
9.510000,0.0253,-0.0506,-0.0494,0.075
9.511000,0.0261,-0.0362,-0.0357,0.057
9.512000,0.0234,-0.0491,-0.0423,0.069
9.512000,0.0135,-0.0217,-0.0454,0.052
9.513000,-0.0106,-0.0074,-0.0449,0.047
9.514000,-0.0000,-0.0147,-0.0422,0.045
9.514000,-0.0251,0.0160,-0.0239,0.038
9.516000,-0.0309,0.0370,-0.0331,0.058
9.522000,0.0083,0.0104,-0.0350,0.037
9.527000,-0.0216,-0.0124,-0.0427,0.049
9.532000,-0.0193,-0.0173,-0.0243,0.036
9.537000,-0.0039,-0.0209,0.0047,0.022
9.544000,-0.0101,-0.0435,-0.0116,0.046
9.548000,0.0040,-0.0172,-0.0126,0.022
9.552000,-0.0059,-0.0363,-0.0160,0.040
9.572000,0.0116,-0.0255,-0.0134,0.031
9.573000,0.0313,-0.0041,-0.0252,0.040
9.574000,0.0069,-0.0316,0.0082,0.033
9.575000,-0.0173,-0.0470,0.0032,0.050
9.578000,-0.0188,-0.0266,0.0112,0.034
9.581000,-0.0083,-0.0195,-0.0011,0.021
9.587000,-0.0291,-0.0433,-0.0251,0.058
9.602000,-0.0235,-0.0407,-0.0358,0.059
9.603000,-0.0395,-0.0334,-0.0262,0.058
9.604000,-0.0482,-0.0440,-0.0356,0.074
9.615000,-0.0651,-0.0284,-0.0152,0.073
9.616000,-0.0275,-0.0093,-0.0615,0.068
9.617000,-0.0426,0.0026,-0.0432,0.061
9.623000,-0.0576,-0.0450,-0.0250,0.077
9.628000,-0.0416,-0.0198,-0.0318,0.056
9.633000,-0.0246,-0.0066,-0.0006,0.026
9.637000,-0.0246,-0.0292,0.0255,0.046
9.643000,-0.0067,-0.0338,0.0373,0.051
9.648000,0.0134,-0.0477,0.0325,0.059
9.653000,0.0298,-0.0130,0.0373,0.049
9.657000,-0.0061,-0.0592,0.0159,0.062
9.663000,0.0449,-0.0504,0.0278,0.073
9.668000,0.0350,-0.0168,0.0290,0.048
9.674000,0.0025,-0.0511,-0.0113,0.052
9.678000,0.0119,-0.0199,-0.0123,0.026
9.683000,-0.0299,0.0111,-0.0371,0.049
9.688000,-0.0440,-0.0164,-0.0380,0.060
9.701000,-0.0437,-0.0448,-0.0340,0.071
9.702000,-0.0364,-0.0041,-0.0325,0.049
9.705000,-0.0481,0.0386,-0.0511,0.080
9.730000,-0.0562,0.0644,-0.0754,0.114
9.731000,-0.0965,0.0436,-0.0450,0.115
9.732000,-0.0556,0.0219,-0.0315,0.068
9.733000,-0.0115,-0.0246,0.0259,0.038
9.733000,-0.0034,-0.0434,0.0662,0.079
9.734000,-0.0201,-0.0336,0.0587,0.071
9.743000,0.0085,-0.0489,0.0570,0.076
9.744000,0.0418,-0.1162,0.1228,0.174
9.749000,0.0310,-0.0916,0.1253,0.158
9.754000,0.0109,-0.0542,0.0818,0.099
9.759000,-0.0031,-0.0052,-0.0194,0.020
9.764000,-0.0112,0.0423,-0.1041,0.113
9.770000,-0.0195,0.0562,-0.1347,0.147
9.784000,-0.0053,0.0866,-0.1155,0.144
9.785000,0.0097,0.1037,-0.1273,0.164
9.786000,-0.0134,0.0922,-0.0429,0.103
9.789000,0.0136,0.0973,-0.0339,0.104
9.809000,-0.0069,0.0680,-0.0665,0.095
9.811000,-0.0259,0.0175,-0.0730,0.079
9.811000,-0.0338,-0.0433,-0.0903,0.106
9.812000,-0.0499,-0.0538,-0.0793,0.108
9.815000,-0.0434,-0.0511,-0.0499,0.084
9.820000,-0.0416,-0.0794,-0.0200,0.092
9.824000,-0.0374,-0.1159,-0.0368,0.127
9.829000,-0.0048,-0.0499,0.0047,0.050
9.835000,-0.0176,-0.0426,0.0328,0.057
9.841000,-0.0102,-0.0377,0.0324,0.051
9.845000,0.0397,-0.0043,0.0384,0.055
9.850000,0.0535,0.0241,0.0270,0.065
9.855000,0.0574,0.0333,-0.0052,0.067
9.861000,0.0577,0.0082,0.0130,0.060
9.865000,0.0627,-0.0085,-0.0529,0.082
9.870000,0.0853,-0.0202,-0.0528,0.102
9.887000,0.0592,-0.0271,-0.0553,0.085
9.888000,0.0570,-0.0672,-0.0271,0.092
9.888000,0.0454,-0.0571,-0.0469,0.087
9.922000,0.0267,-0.0554,-0.0478,0.078
9.923000,0.0404,-0.0301,-0.0323,0.060
9.924000,0.0041,-0.0276,0.0009,0.028
9.925000,-0.0319,-0.0310,0.0183,0.048
9.926000,-0.0391,-0.0058,0.0213,0.045
9.926000,-0.0179,-0.0094,0.0007,0.020
9.928000,-0.0360,0.0025,0.0053,0.036
9.928000,-0.0126,0.0025,0.0267,0.030
9.931000,0.0345,-0.0188,-0.0324,0.051
9.936000,0.0005,-0.0079,-0.0567,0.057
9.942000,0.0105,-0.0161,-0.0509,0.054
9.946000,0.0240,-0.0242,-0.0582,0.067
9.951000,0.0041,-0.0441,-0.0646,0.078
9.958000,0.0390,-0.0093,-0.1090,0.116
9.963000,0.0379,-0.0282,-0.0714,0.086
9.966000,0.0441,-0.0339,-0.0223,0.060
9.972000,0.0385,-0.0087,0.0156,0.042
9.977000,0.0318,0.0174,0.0128,0.038
9.981000,0.0241,0.0232,-0.0114,0.035
9.987000,0.0390,0.0122,-0.0117,0.043
10.004000,0.0290,0.0096,0.0070,0.031
10.005000,0.0059,0.0190,0.0053,0.021
10.006000,0.0103,0.0128,0.0072,0.018
10.007000,0.0017,0.0067,-0.0050,0.009
10.039000,-0.0105,-0.0088,-0.0347,0.037
10.041000,0.0048,-0.0088,-0.0204,0.023
10.042000,0.0199,0.0019,-0.0122,0.023
10.042000,0.0040,-0.0136,-0.0111,0.018
10.044000,0.0109,-0.0195,-0.0253,0.034
10.045000,0.0272,0.0020,0.0009,0.027
10.046000,0.0304,-0.0278,-0.0088,0.042
10.048000,0.0336,-0.0348,-0.0077,0.049
10.053000,0.0201,-0.0262,-0.0219,0.040
10.059000,0.0316,-0.0213,-0.0434,0.058
10.063000,0.0097,-0.0034,-0.0170,0.020
10.068000,0.0036,0.0001,-0.0169,0.017
10.074000,0.0271,-0.0391,-0.0393,0.062
10.078000,0.0208,-0.0222,-0.0556,0.063
10.083000,0.0394,-0.0067,-0.0540,0.067
10.088000,0.0343,-0.0103,-0.0394,0.053
10.105000,0.0423,-0.0019,-0.0286,0.051
10.107000,0.0264,-0.0341,-0.0630,0.076
10.107000,0.0701,-0.0268,-0.0307,0.081
10.111000,0.0625,-0.0005,-0.0413,0.075
10.114000,0.0264,-0.0161,-0.0187,0.036
10.118000,0.0500,-0.0232,-0.0212,0.059
10.123000,0.0380,-0.0125,-0.0129,0.042
10.141000,0.0392,-0.0232,0.0155,0.048
10.142000,0.0308,-0.0172,0.0106,0.037
10.142000,0.0568,-0.0302,-0.0026,0.064
10.145000,0.0317,0.0186,-0.0277,0.046
10.149000,-0.0193,-0.0221,-0.0323,0.044
10.154000,-0.0059,0.0088,-0.0381,0.040
10.160000,0.0168,0.0051,-0.0390,0.043
10.164000,0.0109,0.0097,-0.0388,0.041
10.169000,0.0062,0.0036,-0.0743,0.075
10.175000,-0.0115,0.0070,-0.0252,0.029
10.180000,-0.0078,-0.0169,-0.0287,0.034
10.184000,0.0243,-0.0181,-0.0667,0.073
10.189000,-0.0127,0.0069,-0.0320,0.035
10.206000,0.0181,0.0056,-0.0284,0.034
10.207000,0.0297,-0.0041,-0.0334,0.045
10.208000,0.0365,-0.0030,-0.0395,0.054
10.213000,0.0538,-0.0031,-0.0278,0.061
10.214000,0.0211,0.0016,-0.0377,0.043
10.219000,0.0540,-0.0021,-0.0238,0.059
10.241000,0.0463,-0.0081,-0.0265,0.054
10.243000,0.0518,0.0357,0.0064,0.063
10.245000,0.0454,0.0175,-0.0560,0.074
10.246000,0.0497,0.0220,-0.0608,0.082
10.247000,0.0492,0.0098,-0.0405,0.064
10.249000,0.0308,0.0192,-0.0121,0.038
10.254000,0.0280,0.0141,-0.0314,0.044
10.261000,0.0609,0.0389,-0.0185,0.075
10.265000,0.0412,0.0147,-0.0079,0.044
10.270000,0.0740,-0.0283,-0.0249,0.083
10.280000,0.0128,-0.0554,0.0189,0.060
10.281000,0.0092,-0.0491,0.0149,0.052
10.285000,0.0271,-0.0405,0.0205,0.053
10.290000,-0.0063,-0.0843,0.0082,0.085
10.296000,-0.0037,-0.0623,0.0244,0.067
10.300000,0.0096,-0.0679,0.0154,0.070
10.305000,0.0323,-0.0533,0.0363,0.072
10.318000,0.0276,-0.0767,0.0000,0.082
10.319000,0.0112,-0.0513,-0.0193,0.056
10.320000,-0.0005,-0.0392,0.0150,0.042
10.345000,0.0045,-0.0247,0.0229,0.034
10.346000,-0.0035,0.0050,-0.0167,0.018
10.346000,0.0157,-0.0059,-0.0453,0.048
10.347000,0.0098,0.0202,-0.0284,0.036
10.347000,0.0134,0.0199,-0.0674,0.072
10.351000,0.0075,0.0517,-0.0895,0.104
10.356000,0.0159,0.0630,-0.0613,0.089
10.361000,-0.0341,0.0731,-0.0855,0.118
10.366000,-0.0147,0.0831,-0.0739,0.112
10.371000,-0.0016,0.0420,-0.0163,0.045
10.376000,0.0103,-0.0285,-0.0447,0.054
10.381000,0.0102,-0.0414,0.0326,0.054
10.386000,0.0457,-0.0233,0.0941,0.107
10.392000,0.0776,-0.0399,0.1289,0.156
10.396000,0.0928,-0.0587,0.1088,0.155
10.402000,0.0689,-0.0987,0.1030,0.158
10.407000,0.0285,-0.0530,0.0689,0.091
10.411000,0.0039,-0.0645,-0.0608,0.089
10.417000,0.0152,0.0047,-0.0397,0.043
10.422000,0.0015,0.0366,-0.0497,0.062
10.439000,-0.0242,0.0409,-0.1438,0.151
10.440000,-0.0345,0.0963,-0.1389,0.173
10.441000,-0.0033,0.0800,-0.0995,0.128
10.473000,-0.0379,0.0840,-0.0795,0.122
10.475000,-0.0281,0.0619,-0.0323,0.075
10.476000,-0.0205,0.0720,-0.0294,0.080
10.477000,-0.0403,0.0215,-0.0562,0.072
10.477000,-0.0456,-0.0370,-0.0379,0.070
10.478000,-0.0401,-0.0535,-0.0390,0.077
10.480000,-0.0168,-0.0829,-0.0130,0.086
10.480000,0.0050,-0.0872,-0.0148,0.089
10.483000,0.0160,-0.0867,-0.0131,0.089
10.487000,0.0327,-0.0826,0.0395,0.097
10.493000,0.0620,-0.0381,0.0326,0.080
10.498000,0.0732,0.0156,0.0117,0.076
10.503000,0.0793,0.0094,0.0755,0.110
10.508000,0.0720,-0.0013,0.0193,0.075
10.514000,0.0836,0.0214,0.0256,0.090
10.518000,0.0808,0.0404,-0.0332,0.096
10.523000,0.0803,0.0153,-0.0546,0.098
10.540000,0.0584,0.0046,-0.0747,0.095
10.542000,0.0427,-0.0285,-0.0544,0.075
10.542000,0.0330,-0.0246,-0.0605,0.073
10.544000,0.0209,-0.0338,-0.0584,0.071
10.548000,0.0056,-0.0643,-0.0186,0.067
10.553000,-0.0153,-0.0732,-0.0492,0.089
10.575000,-0.0409,-0.0310,-0.0320,0.060
10.576000,-0.0295,-0.0117,0.0017,0.032
10.577000,-0.0265,-0.0162,0.0365,0.048
10.578000,-0.0330,-0.0267,-0.0048,0.043
10.578000,-0.0312,-0.0287,-0.0063,0.043
10.584000,-0.0413,-0.0366,-0.0088,0.056
10.588000,-0.0050,-0.0421,-0.0386,0.057
10.594000,0.0249,-0.0047,-0.0812,0.085
10.599000,0.0238,-0.0390,-0.0677,0.082
10.604000,0.0500,-0.0326,-0.0842,0.103
10.611000,0.0487,-0.0381,-0.0675,0.092
10.614000,0.0476,-0.0413,-0.0488,0.080
10.619000,0.0775,-0.0243,-0.0221,0.084
10.624000,0.0623,-0.0123,-0.0065,0.064
10.629000,0.0521,-0.0217,-0.0280,0.063
10.634000,0.0645,0.0235,-0.0412,0.080
10.639000,0.0603,0.0445,-0.0045,0.075
10.656000,0.0753,0.0215,0.0069,0.079
10.656000,0.0452,0.0152,0.0231,0.053
10.657000,0.0343,0.0173,-0.0037,0.039
10.685000,0.0259,-0.0008,-0.0384,0.046
10.686000,0.0045,0.0228,-0.0538,0.059
10.686000,-0.0084,0.0356,-0.0226,0.043
10.687000,-0.0165,0.0197,-0.0331,0.042
10.687000,0.0171,-0.0257,-0.0209,0.037
10.688000,0.0018,-0.0267,-0.0196,0.033
10.690000,0.0079,-0.0266,-0.0727,0.078
10.698000,0.0079,-0.0193,-0.0577,0.061
10.700000,0.0151,-0.0347,-0.0464,0.060
10.705000,0.0315,-0.0155,-0.0316,0.047
10.711000,0.0395,-0.0617,-0.0240,0.077
10.715000,0.0403,-0.0648,-0.0366,0.085
10.720000,0.0566,-0.0488,-0.0075,0.075
10.725000,0.0536,-0.0532,-0.0237,0.079
10.730000,0.0531,-0.0801,-0.0289,0.100
10.735000,0.0668,-0.0676,-0.0260,0.098
10.740000,0.0543,-0.0219,-0.0350,0.068
10.755000,0.0634,-0.0539,-0.0439,0.094
10.756000,0.0641,-0.0452,-0.0492,0.093
10.756000,0.0387,-0.0496,-0.0403,0.075
10.782000,0.0351,-0.0280,-0.0460,0.064
10.783000,0.0386,-0.0291,0.0017,0.048
10.784000,0.0291,-0.0468,-0.0354,0.065
10.784000,0.0220,-0.0466,-0.0189,0.055
10.785000,-0.0003,-0.0475,-0.0287,0.056
10.785000,-0.0034,-0.0165,-0.0610,0.063
10.791000,0.0161,-0.0332,-0.0669,0.076
10.795000,0.0022,-0.0272,-0.0621,0.068
10.800000,0.0146,-0.0153,-0.0597,0.063
10.806000,0.0151,-0.0118,-0.0455,0.049
10.811000,0.0107,-0.0143,-0.0243,0.030
10.816000,0.0254,-0.0061,-0.0258,0.037
10.821000,0.0483,-0.0205,-0.0487,0.072
10.827000,0.0273,-0.0337,-0.0217,0.048
10.831000,0.0325,-0.0408,-0.0293,0.060
10.836000,0.0365,-0.0158,-0.0345,0.053
10.842000,0.0157,0.0007,-0.0289,0.033
10.846000,0.0377,0.0016,-0.0032,0.038
10.852000,0.0607,-0.0105,-0.0038,0.062
10.856000,0.0396,-0.0428,-0.0128,0.060
10.874000,0.0378,-0.0190,-0.0015,0.042
10.875000,0.0502,0.0035,-0.0055,0.051
10.876000,0.0293,0.0008,-0.0297,0.042
10.878000,0.0357,-0.0232,-0.0253,0.050
10.882000,0.0266,-0.0078,-0.0435,0.052
10.886000,0.0224,0.0371,-0.0604,0.074
10.892000,0.0265,0.0401,-0.0619,0.078
10.911000,0.0185,0.0205,-0.0727,0.078
10.913000,0.0154,0.0213,-0.0586,0.064
10.913000,0.0181,0.0316,-0.0540,0.065
10.914000,-0.0039,0.0050,-0.0304,0.031
10.917000,0.0264,-0.0013,-0.0794,0.084
10.923000,0.0528,0.0092,-0.0485,0.072
10.928000,0.0116,-0.0386,-0.0332,0.052
10.932000,0.0337,-0.0136,-0.0275,0.046
10.937000,0.0365,-0.0387,-0.0325,0.062
10.945000,0.0324,-0.0113,0.0053,0.035
10.948000,0.0319,-0.0198,0.0093,0.039
10.953000,0.0219,-0.0757,-0.0223,0.082
10.958000,0.0166,-0.0612,0.0127,0.065
10.963000,0.0293,-0.0265,0.0012,0.040
10.968000,-0.0032,-0.0610,-0.0316,0.069
10.973000,0.0333,-0.0430,-0.0642,0.084
10.998000,0.0280,-0.0323,-0.0160,0.046
10.999000,0.0144,-0.0323,0.0011,0.035
11.000000,-0.0027,-0.0442,-0.0496,0.067
11.001000,0.0257,-0.0276,-0.0181,0.042
11.001000,-0.0020,-0.0408,-0.0309,0.051
11.008000,-0.0352,-0.0431,-0.0481,0.074
11.041000,-0.0017,-0.0229,-0.0650,0.069
11.041000,-0.0088,-0.0064,-0.0756,0.076
11.042000,-0.0255,0.0301,-0.0565,0.069
11.043000,0.0113,-0.0226,-0.0601,0.065
11.044000,0.0086,-0.0488,-0.0413,0.065
11.044000,0.0343,-0.0463,0.0497,0.076
11.045000,0.0693,-0.0700,0.0651,0.118
11.046000,0.0875,-0.1232,0.1157,0.190
11.049000,0.1082,-0.1819,0.1718,0.273
11.054000,0.0804,-0.1500,0.1194,0.208
11.059000,0.0591,-0.1218,0.0500,0.144
11.064000,0.0107,-0.0512,-0.0638,0.083
11.069000,-0.0254,-0.0050,-0.1281,0.131
11.074000,-0.0519,0.0065,-0.2028,0.209
11.090000,-0.0619,0.0108,-0.2439,0.252
11.091000,-0.0734,0.0768,-0.2278,0.251
11.091000,-0.0730,0.1114,-0.1860,0.229
11.095000,-0.0691,0.0970,-0.1352,0.180
11.099000,-0.0711,0.0578,-0.0267,0.095
11.104000,-0.0360,0.0034,0.0821,0.090
11.109000,-0.0046,-0.0042,0.0524,0.053
11.114000,0.0266,-0.0533,0.0099,0.060
11.120000,0.0756,-0.0866,-0.0038,0.115
11.125000,0.0723,-0.0794,-0.0129,0.108
11.130000,0.0763,-0.0734,-0.0377,0.112
11.135000,0.0754,-0.0865,-0.0421,0.122
11.140000,0.0676,-0.0235,-0.0417,0.083
11.146000,0.0763,0.0081,-0.0208,0.080
11.150000,0.0645,0.0170,-0.0177,0.069
11.154000,0.0597,0.0437,-0.0178,0.076
11.159000,0.0499,0.0061,0.0060,0.051
11.164000,0.0771,0.0163,0.0097,0.079
11.169000,0.0601,-0.0352,-0.0113,0.071
11.174000,0.0506,-0.0816,-0.0276,0.100
11.187000,0.0425,-0.0803,-0.0499,0.104
11.188000,0.0205,-0.0861,-0.0415,0.098
11.191000,0.0060,-0.1204,-0.0288,0.124
11.214000,-0.0393,-0.1437,-0.0426,0.155
11.215000,-0.0520,-0.0981,-0.0186,0.113
11.216000,-0.0764,-0.1146,0.0277,0.140
11.216000,-0.0815,-0.0930,-0.0048,0.124
11.217000,-0.0996,-0.0692,-0.0311,0.125
11.220000,-0.1151,-0.0147,0.0154,0.117
11.225000,-0.0532,-0.0153,-0.0308,0.063
11.231000,-0.0228,-0.0099,-0.0408,0.048
11.236000,-0.0056,0.0216,-0.0043,0.023
11.241000,0.0090,-0.0089,-0.0370,0.039
11.246000,0.0354,-0.0190,-0.0576,0.070
11.251000,0.0713,0.0077,-0.0463,0.085
11.256000,0.0749,0.0295,-0.0447,0.092
11.261000,0.0597,-0.0036,-0.0314,0.068
11.266000,0.0673,-0.0186,0.0090,0.070
11.271000,0.0762,-0.0193,-0.0140,0.080
11.276000,0.0759,-0.0177,-0.0230,0.081
11.280000,0.0804,0.0195,-0.0262,0.087
11.286000,0.0684,0.0207,0.0001,0.071
11.291000,0.0509,-0.0423,-0.0511,0.084
11.308000,0.0407,-0.0157,-0.0273,0.051
11.310000,0.0023,-0.0191,-0.0525,0.056
11.311000,-0.0072,-0.0331,-0.0265,0.043
11.312000,0.0037,-0.0281,-0.0422,0.051
11.316000,0.0004,-0.0432,-0.0233,0.049
11.321000,-0.0325,-0.0333,-0.0520,0.070
11.326000,-0.0330,-0.0271,-0.0568,0.071
11.344000,-0.0239,-0.0126,-0.0936,0.097
11.345000,-0.0244,-0.0220,-0.0818,0.088
11.346000,0.0155,-0.0420,-0.0438,0.063
11.347000,0.0041,-0.0322,-0.0798,0.086
11.352000,-0.0394,-0.0212,-0.0384,0.059
11.357000,-0.0326,-0.0282,-0.0401,0.059
11.362000,0.0277,-0.0386,-0.0847,0.097
11.367000,0.0793,-0.0253,-0.0506,0.097
11.372000,0.0677,-0.0228,-0.0288,0.077
11.382000,0.0884,-0.0369,-0.0618,0.114
11.383000,0.0831,-0.0165,-0.0519,0.099
11.388000,0.0695,0.0049,-0.0444,0.083
11.392000,0.1072,-0.0487,-0.0288,0.121
11.397000,0.0925,-0.0461,-0.0255,0.106
11.403000,0.0638,-0.0317,-0.0330,0.078
11.408000,0.0889,-0.0292,0.0048,0.094
11.425000,0.0915,-0.0091,-0.0457,0.103
11.427000,0.0728,0.0026,-0.0450,0.086
11.427000,0.0603,-0.0226,-0.0634,0.090
11.430000,0.0443,-0.0048,-0.0472,0.065
11.433000,0.0274,0.0032,-0.0372,0.046
11.438000,0.0272,-0.0184,-0.0513,0.061
11.443000,0.0199,-0.0269,-0.0308,0.045
11.463000,0.0174,-0.0649,-0.0190,0.070
11.464000,0.0199,-0.0683,-0.0254,0.075
11.465000,0.0377,-0.1072,-0.0464,0.123
11.466000,0.0376,-0.1268,-0.0508,0.142
11.468000,0.0175,-0.1202,-0.0272,0.125
11.474000,0.0477,-0.1553,-0.0077,0.163
11.479000,0.0646,-0.2197,-0.0446,0.233
11.484000,0.0317,-0.2232,-0.0482,0.231
11.489000,0.0040,-0.1506,-0.0143,0.151
11.496000,-0.0148,-0.1463,0.0297,0.150
11.499000,-0.0272,-0.1481,-0.0016,0.151
11.504000,-0.0654,-0.1510,-0.0232,0.166
11.509000,-0.0486,-0.1326,-0.0256,0.144
11.514000,-0.0660,-0.1416,-0.0234,0.158
11.519000,-0.0653,-0.1138,0.0095,0.132
11.524000,-0.0941,-0.1242,-0.0007,0.156
11.542000,-0.0950,-0.1452,-0.0821,0.192
11.543000,-0.0837,-0.1494,-0.0536,0.179
11.544000,-0.0961,-0.1726,-0.0587,0.206
11.547000,-0.0927,-0.1481,-0.0555,0.183
11.578000,-0.0936,-0.1559,-0.0704,0.195
11.579000,-0.1015,-0.1993,-0.0414,0.227
11.580000,-0.1009,-0.1924,0.0047,0.217
11.581000,-0.0668,-0.2913,0.0062,0.299
11.581000,-0.0445,-0.3027,-0.0031,0.306
11.582000,0.0101,-0.3093,-0.0271,0.311
11.582000,0.0025,-0.3146,-0.0132,0.315
11.585000,0.0084,-0.2867,-0.0198,0.288
11.590000,0.0014,-0.3124,-0.0638,0.319
11.597000,0.0353,-0.3368,-0.0154,0.339
11.601000,0.0643,-0.2969,-0.0260,0.305
11.605000,0.0637,-0.3582,-0.0275,0.365
11.610000,0.0579,-0.3478,0.0098,0.353
11.616000,0.0621,-0.3637,0.0407,0.371
11.620000,0.0559,-0.3401,-0.0030,0.345
11.626000,0.0570,-0.3465,-0.0484,0.354
11.644000,0.0479,-0.3875,-0.0381,0.392
11.645000,0.0783,-0.3602,-0.0006,0.369
11.646000,0.0755,-0.3569,0.0137,0.365
11.647000,0.1459,-0.3919,0.0358,0.420
11.651000,0.1769,-0.3968,0.0374,0.436
11.655000,0.1686,-0.3718,0.0471,0.411
11.679000,0.1785,-0.3922,0.0746,0.437
11.681000,0.2304,-0.4162,0.0552,0.479
11.682000,0.2548,-0.3946,0.0311,0.471
11.682000,0.2675,-0.4172,0.0283,0.496
11.683000,0.2613,-0.3847,-0.0010,0.465
11.686000,0.2707,-0.4025,-0.0671,0.490
11.692000,0.2816,-0.3902,-0.0760,0.487
11.697000,0.2448,-0.4425,-0.1202,0.520
11.701000,0.2246,-0.4851,-0.1217,0.548
11.706000,0.2334,-0.4486,-0.1322,0.523
11.712000,0.2412,-0.4384,-0.1372,0.519
11.716000,0.1978,-0.4485,-0.1642,0.517
11.722000,0.1233,-0.4346,-0.2262,0.505
11.726000,0.1037,-0.4302,-0.1896,0.481
11.748000,0.1210,-0.5619,-0.1149,0.586
11.750000,0.0925,-0.6851,-0.1886,0.717
11.750000,-0.0235,-0.6968,-0.1602,0.715
11.751000,-0.1134,-0.6905,-0.0818,0.705
11.752000,-0.1969,-0.6543,-0.0356,0.684
11.756000,-0.1869,-0.6036,-0.0583,0.635
11.790000,-0.1605,-0.6400,-0.0960,0.667
11.791000,-0.1783,-0.6428,-0.0722,0.671
11.791000,-0.1686,-0.6802,-0.0311,0.701
11.792000,-0.1457,-0.7209,0.0718,0.739
11.793000,-0.1466,-0.7208,0.1185,0.745
11.793000,-0.1112,-0.7492,0.1575,0.774
11.794000,-0.1748,-0.7009,0.1787,0.744
11.803000,-0.2132,-0.6646,0.1976,0.725
11.803000,-0.2047,-0.6460,0.2307,0.716
11.807000,-0.2203,-0.5640,0.2422,0.652
11.815000,-0.2600,-0.5524,0.2492,0.659
11.817000,-0.2878,-0.5156,0.3769,0.701
11.823000,-0.2930,-0.5051,0.4223,0.721
11.828000,-0.3020,-0.4705,0.4379,0.710
11.840000,-0.2836,-0.4657,0.4465,0.705
11.841000,-0.2428,-0.4489,0.4277,0.666
11.844000,-0.2118,-0.4797,0.4618,0.699
11.868000,-0.1473,-0.4949,0.4365,0.676
11.869000,-0.1079,-0.4442,0.3443,0.572
11.870000,-0.0876,-0.4305,0.2824,0.522
11.870000,-0.0624,-0.4573,0.2279,0.515
11.871000,-0.0668,-0.4983,0.1779,0.533
11.874000,-0.0473,-0.5152,0.0906,0.525
11.882000,0.0021,-0.5630,-0.0244,0.563
11.884000,0.0433,-0.6152,0.0406,0.618
11.896000,0.0475,-0.7019,-0.0062,0.704
11.898000,0.0897,-0.7477,-0.0990,0.760
11.898000,0.1644,-0.8708,-0.0884,0.891
11.903000,0.0974,-0.9397,0.0443,0.946
11.908000,0.0451,-0.9557,0.0745,0.960
11.913000,0.0979,-1.0228,0.0547,1.029
11.918000,0.0873,-1.1183,0.0858,1.125
11.923000,0.0808,-1.1487,0.1231,1.158
11.930000,0.0899,-1.1728,0.1992,1.193
11.933000,0.0584,-1.1692,0.2564,1.198
11.939000,0.0747,-1.1892,0.2965,1.228
11.943000,0.0645,-1.1647,0.2299,1.189
11.948000,0.0242,-1.1065,0.2145,1.127
11.953000,-0.0667,-1.0876,0.3079,1.132
11.959000,-0.0890,-1.0053,0.3285,1.061
11.974000,-0.0782,-0.9946,0.2746,1.035
11.975000,-0.1135,-1.0065,0.2609,1.046
11.975000,-0.1372,-0.9848,0.2363,1.022
12.001000,-0.1313,-1.0191,0.1655,1.041
12.002000,-0.1101,-1.0880,0.0630,1.095
12.003000,-0.0950,-1.1842,0.0206,1.188
12.004000,-0.1096,-1.1904,0.0550,1.197
12.004000,-0.1064,-1.2372,0.0598,1.243
12.005000,-0.1151,-1.2991,0.0475,1.305
12.009000,-0.1193,-1.2987,0.0495,1.305
12.015000,-0.1153,-1.3159,0.1094,1.325
12.020000,-0.1188,-1.3316,0.1138,1.342
12.024000,-0.1266,-1.3339,0.1872,1.353
12.031000,-0.1323,-1.3000,0.2236,1.326
12.035000,-0.1122,-1.3052,0.2750,1.339
12.040000,-0.1273,-1.3270,0.3413,1.376
12.045000,-0.1811,-1.2635,0.3497,1.323
12.050000,-0.1860,-1.2345,0.3575,1.299
12.055000,-0.1793,-1.2077,0.3388,1.267
12.060000,-0.2086,-1.2309,0.2713,1.278
12.077000,-0.2089,-1.2443,0.2322,1.283
12.078000,-0.2351,-1.2454,0.2485,1.292
12.080000,-0.2786,-1.1746,0.2972,1.243
12.081000,-0.3815,-1.1372,0.3847,1.260
12.110000,-0.4818,-1.0986,0.4105,1.268
12.111000,-0.5498,-1.0456,0.4234,1.255
12.113000,-0.6491,-1.0093,0.4391,1.278
12.113000,-0.7022,-0.9994,0.3814,1.280
12.115000,-0.7110,-1.0228,0.3156,1.285
12.116000,-0.7199,-1.0401,0.2980,1.300
12.117000,-0.7313,-1.0143,0.2449,1.274
12.121000,-0.7249,-0.9752,0.3246,1.258
12.126000,-0.7228,-0.9505,0.4873,1.290
12.133000,-0.7252,-0.8780,0.5818,1.279
12.137000,-0.6991,-0.9037,0.4924,1.244
12.141000,-0.5759,-1.0035,0.3997,1.224
12.159000,-0.4674,-1.0530,0.3423,1.202
12.160000,-0.3742,-1.1106,0.3353,1.219
12.161000,-0.2760,-1.1190,0.2953,1.190
12.190000,-0.2191,-1.0841,0.3523,1.161
12.191000,-0.2288,-0.9952,0.4497,1.116
12.192000,-0.2144,-0.9815,0.5120,1.128
12.193000,-0.1797,-0.9376,0.5550,1.104
12.194000,-0.1709,-0.8873,0.6965,1.141
12.194000,-0.2220,-0.8104,0.8875,1.222
12.195000,-0.2253,-0.6915,0.9823,1.222
12.203000,-0.3020,-0.5964,0.9023,1.123
12.204000,-0.3399,-0.5092,0.8551,1.052
12.206000,-0.3738,-0.3906,1.0309,1.164
12.212000,-0.3945,-0.3293,1.1192,1.232
12.217000,-0.4358,-0.2488,1.1990,1.300
12.222000,-0.5084,-0.1370,1.3073,1.409
12.227000,-0.5970,-0.0996,1.3194,1.452
12.232000,-0.6068,-0.1233,1.2827,1.424
12.237000,-0.5953,-0.0812,1.2744,1.409
12.242000,-0.6145,-0.0944,1.1811,1.335
12.249000,-0.6316,-0.0934,1.1860,1.347
12.252000,-0.6864,-0.0652,1.2606,1.437
12.257000,-0.7193,-0.0699,1.1455,1.354
12.264000,-0.7684,-0.0440,1.0623,1.312
12.268000,-0.8064,-0.0819,0.9653,1.260
12.272000,-0.8534,-0.0702,0.9002,1.242
12.278000,-0.9385,-0.0292,1.0211,1.387
12.290000,-0.9682,-0.0156,0.9443,1.353
12.291000,-0.9940,-0.1439,0.7534,1.256
12.293000,-0.9570,-0.2166,0.6014,1.151
12.314000,-0.9574,-0.2790,0.5740,1.151
12.315000,-0.9464,-0.2809,0.5741,1.142
12.316000,-0.9231,-0.3120,0.5908,1.140
12.316000,-0.9127,-0.4095,0.5201,1.127
12.318000,-0.9139,-0.3461,0.5186,1.106
12.323000,-0.9265,-0.3321,0.5633,1.134
12.328000,-0.8767,-0.3270,0.5200,1.070
12.334000,-0.8350,-0.3414,0.5168,1.040
12.338000,-0.8223,-0.3645,0.6134,1.089
12.343000,-0.8237,-0.3353,0.8061,1.200
12.349000,-0.7774,-0.3055,0.9370,1.255
12.353000,-0.7267,-0.2728,0.9500,1.227
12.358000,-0.7012,-0.2754,0.9686,1.227
12.379000,-0.6158,-0.2905,1.0023,1.212
12.381000,-0.5373,-0.3074,1.0703,1.236
12.381000,-0.5111,-0.3177,1.1284,1.279
12.382000,-0.3925,-0.3251,1.2139,1.317
12.384000,-0.3668,-0.3513,1.2720,1.370
12.388000,-0.3935,-0.3101,1.4032,1.490
12.394000,-0.3667,-0.3011,1.3994,1.478
12.417000,-0.3427,-0.3218,1.2333,1.320
12.418000,-0.2705,-0.2918,1.1378,1.205
12.419000,-0.2504,-0.2518,1.1788,1.231
12.420000,-0.2613,-0.1815,1.2317,1.272
12.421000,-0.2661,-0.1013,1.2212,1.254
12.424000,-0.2407,-0.0613,1.1960,1.222
12.429000,-0.2523,0.0163,1.1444,1.172
12.435000,-0.2648,0.0287,1.0794,1.112
12.440000,-0.2981,0.0967,1.0272,1.074
12.445000,-0.3352,0.1357,0.9351,1.003
12.451000,-0.3987,0.2066,0.9837,1.081
12.455000,-0.4672,0.2676,1.0363,1.168
12.461000,-0.4911,0.2577,1.0340,1.173
12.465000,-0.4986,0.2813,1.0200,1.170
12.470000,-0.5403,0.3118,1.0599,1.230
12.475000,-0.5385,0.3385,1.0616,1.238
12.482000,-0.5638,0.3568,0.9915,1.195
12.485000,-0.5631,0.3896,0.9629,1.182
12.489000,-0.5739,0.4223,1.0144,1.240
12.495000,-0.6009,0.4753,0.9855,1.248
12.516000,-0.6044,0.5056,0.9087,1.203
12.518000,-0.6270,0.5012,0.9766,1.264
12.520000,-0.6187,0.5148,1.0482,1.322
12.521000,-0.6515,0.5020,1.0074,1.300
12.523000,-0.6990,0.4663,0.9921,1.300
12.525000,-0.6927,0.4007,0.9889,1.272
12.563000,-0.6870,0.3613,0.9707,1.243
12.564000,-0.6622,0.2992,0.9696,1.212
12.565000,-0.6844,0.2454,1.0441,1.272
12.565000,-0.6696,0.1605,1.0530,1.258
12.566000,-0.6513,0.1103,1.0012,1.200
12.567000,-0.6392,0.0158,0.9513,1.146
12.567000,-0.6222,-0.0751,0.9329,1.124
12.568000,-0.6299,-0.1455,0.8406,1.060
12.570000,-0.6039,-0.1909,0.8447,1.056
12.576000,-0.6051,-0.2649,0.8192,1.052
12.583000,-0.5975,-0.3065,0.7809,1.030
12.586000,-0.5707,-0.2907,0.7992,1.024
12.591000,-0.5583,-0.3277,0.7175,0.966
12.596000,-0.5759,-0.3347,0.6624,0.939
12.611000,-0.5268,-0.3456,0.5662,0.847
12.612000,-0.5283,-0.3877,0.4564,0.799
12.613000,-0.4978,-0.4239,0.3998,0.766
12.641000,-0.4727,-0.3768,0.2762,0.665
12.642000,-0.5098,-0.3527,0.1404,0.636
12.643000,-0.4545,-0.4044,0.0875,0.615
12.643000,-0.3374,-0.4483,-0.0200,0.561
12.644000,-0.2860,-0.5751,-0.2248,0.681
12.644000,-0.2265,-0.5718,-0.3537,0.709
12.653000,-0.2415,-0.4922,-0.3878,0.672
12.654000,-0.2609,-0.4597,-0.4229,0.677
12.657000,-0.2187,-0.4241,-0.4553,0.660
12.662000,-0.1834,-0.3949,-0.4348,0.615
12.667000,-0.0873,-0.3939,-0.3325,0.523
12.672000,-0.0414,-0.3443,-0.4556,0.573
12.677000,0.0527,-0.3526,-0.5618,0.665
12.682000,0.0911,-0.2798,-0.5623,0.635
12.687000,0.1388,-0.2023,-0.6360,0.682
12.692000,0.1561,-0.0856,-0.6430,0.667
12.707000,0.1283,0.0466,-0.6055,0.621
12.708000,0.1902,0.1442,-0.5965,0.642
12.709000,0.2058,0.2860,-0.6733,0.760
12.712000,0.2039,0.5129,-0.7001,0.892
12.731000,0.1924,0.7158,-0.6012,0.954
12.732000,0.1838,1.0026,-0.6216,1.194
12.733000,0.1678,1.2883,-0.5838,1.424
12.733000,0.1523,1.5441,-0.6209,1.671
12.738000,0.1537,1.7916,-0.6620,1.916
12.742000,0.1899,2.0597,-0.6584,2.171
12.748000,0.2392,2.3099,-0.5059,2.377
12.753000,0.2851,2.6428,-0.3600,2.682
12.758000,0.3485,3.0434,-0.1981,3.070
12.763000,0.4233,3.3622,0.0261,3.389
12.768000,0.5814,3.6314,-0.1511,3.681
12.773000,0.8309,3.8522,-0.4189,3.963
12.778000,0.9973,4.0273,-0.6258,4.196
12.783000,1.0765,4.2380,-0.5746,4.410
12.788000,1.1515,4.4306,-0.6868,4.629
12.793000,1.2267,4.5607,-0.7323,4.779
12.810000,1.2638,4.6526,-0.7800,4.884
12.812000,1.3427,4.6574,-0.8996,4.930
12.813000,1.4325,4.5597,-1.1704,4.921
12.841000,1.6285,4.4196,-1.7604,5.028
12.844000,1.7869,4.2649,-2.1998,5.121
12.845000,1.7801,4.2500,-1.9442,5.001
12.847000,1.7075,4.2514,-1.5285,4.830
12.848000,1.7466,4.1650,-1.6875,4.821
12.850000,1.7404,4.1084,-1.7385,4.789
12.852000,1.6569,4.0778,-1.5830,4.678
12.853000,1.6646,3.9691,-1.8032,4.667
12.855000,1.7064,3.9022,-1.8642,4.649
12.859000,1.6368,3.9020,-1.8369,4.613
12.871000,1.5175,3.8823,-1.6122,4.469
12.873000,1.3600,3.8155,-1.3393,4.266
12.875000,1.2186,3.6896,-1.1679,4.057
12.880000,1.0571,3.6168,-1.0735,3.918
12.886000,0.9007,3.6066,-1.0814,3.871
12.890000,0.7718,3.4316,-1.0615,3.674
12.895000,0.6989,3.2162,-0.8313,3.395
12.899000,0.6029,3.0284,-0.6451,3.155
12.905000,0.5302,2.7570,-0.4723,2.847
12.910000,0.5321,2.4283,-0.3624,2.512
12.929000,0.5536,2.0853,-0.3084,2.179
12.931000,0.5672,1.7317,-0.2502,1.839
12.932000,0.5909,1.4045,-0.2838,1.550
12.933000,0.6349,1.1741,-0.3544,1.381
12.966000,0.5900,0.9748,-0.4701,1.233
12.967000,0.5468,0.7622,-0.6217,1.125
12.967000,0.5652,0.5986,-0.8235,1.165
12.968000,0.5349,0.4256,-1.0270,1.234
12.969000,0.5097,0.2538,-1.1336,1.269
12.969000,0.4642,0.1300,-1.2220,1.314
12.971000,0.4052,-0.0151,-1.3107,1.372
12.972000,0.3217,-0.1696,-1.3781,1.425
12.976000,0.2973,-0.3824,-1.4487,1.528
12.983000,0.2890,-0.5446,-1.5454,1.664
12.987000,0.2347,-0.8020,-1.6002,1.805
12.991000,0.2325,-1.0064,-1.5547,1.867
12.996000,0.2154,-1.2008,-1.5382,1.963
13.003000,0.1931,-1.4091,-1.5175,2.080
13.006000,0.1580,-1.6253,-1.5184,2.230
13.011000,0.1378,-1.8184,-1.5269,2.378
13.027000,0.1491,-1.9644,-1.5250,2.491
13.028000,0.1478,-2.1531,-1.4603,2.606
13.030000,0.1687,-2.3234,-1.4141,2.725
13.052000,0.1900,-2.4133,-1.3862,2.790
13.054000,0.2214,-2.5303,-1.3863,2.894
13.055000,0.2619,-2.5945,-1.3173,2.922
13.056000,0.2730,-2.6907,-1.2547,2.981
13.057000,0.3280,-2.7173,-1.1795,2.980
13.057000,0.3634,-2.7401,-1.0221,2.947
13.061000,0.4081,-2.7245,-0.9896,2.927
13.067000,0.4586,-2.6873,-0.9346,2.882
13.071000,0.4826,-2.6524,-0.8521,2.827
13.077000,0.5200,-2.5685,-0.7748,2.733
13.083000,0.5382,-2.4606,-0.7427,2.626
13.087000,0.5052,-2.3708,-0.6746,2.516
13.092000,0.4937,-2.2463,-0.6294,2.385
13.097000,0.4655,-2.1327,-0.6583,2.280
13.102000,0.4684,-2.0538,-0.7120,2.224
13.110000,0.4187,-1.9270,-0.7188,2.099
13.112000,0.3712,-1.7752,-0.7541,1.964
13.118000,0.3477,-1.6570,-0.7619,1.857
13.121000,0.3191,-1.5113,-0.7206,1.704
13.127000,0.2840,-1.4206,-0.7940,1.652
13.133000,0.2964,-1.2953,-0.9344,1.624
13.137000,0.3193,-1.2010,-1.0572,1.632
13.142000,0.2800,-1.0553,-0.9668,1.458
13.147000,0.2379,-0.9133,-0.8734,1.286
13.162000,0.3080,-0.8263,-0.9353,1.285
13.163000,0.2978,-0.7285,-0.9239,1.214
13.194000,0.3358,-0.6500,-1.0060,1.244
13.195000,0.4157,-0.5068,-1.0740,1.258
13.195000,0.4530,-0.4128,-1.0222,1.192
13.195000,0.5038,-0.2843,-1.0419,1.192
13.196000,0.5764,-0.1332,-0.9466,1.116
13.197000,0.5548,-0.0264,-0.9230,1.077
13.197000,0.6305,0.1053,-0.9408,1.137
13.198000,0.6627,0.2666,-0.8699,1.126
13.205000,0.6526,0.3978,-0.8190,1.120
13.207000,0.6684,0.5480,-0.7280,1.130
13.212000,0.6130,0.6906,-0.6922,1.154
13.218000,0.5429,0.8678,-0.5944,1.184
13.223000,0.5055,1.0566,-0.5216,1.282
13.228000,0.4806,1.1997,-0.4821,1.379
13.233000,0.3912,1.3247,-0.3717,1.430
13.238000,0.3787,1.4495,-0.3157,1.531
13.243000,0.3353,1.5718,-0.2448,1.626
13.248000,0.3039,1.7011,-0.1656,1.736
13.253000,0.2917,1.7657,-0.1236,1.794
13.258000,0.2620,1.8409,-0.0944,1.862
13.264000,0.2336,1.9017,-0.1223,1.920
13.286000,0.2272,1.9791,-0.1246,1.996
13.288000,0.1926,2.0587,-0.1242,2.071
13.290000,0.1658,2.0569,-0.0999,2.066
13.291000,0.1356,2.0251,-0.0910,2.032
13.325000,0.1440,2.0257,-0.0674,2.032
13.326000,0.1840,1.9867,-0.1081,1.998
13.327000,0.1549,1.9346,-0.1247,1.945
13.328000,0.1192,1.8657,-0.1473,1.875
13.329000,0.1116,1.7873,-0.1699,1.799
13.330000,0.0852,1.6779,-0.1283,1.685
13.331000,0.0904,1.5495,-0.1059,1.556
13.331000,0.1184,1.4498,-0.1168,1.459
13.332000,0.0918,1.3061,-0.1444,1.317
13.346000,0.0857,1.1899,-0.1359,1.201
13.348000,0.1134,1.0966,-0.1511,1.113
13.349000,0.0826,1.0118,-0.1503,1.026
13.360000,0.0857,0.8840,-0.1887,0.908
13.361000,0.0890,0.7515,-0.2016,0.783
13.362000,0.1094,0.6371,-0.2370,0.688
13.366000,0.1262,0.5133,-0.2839,0.600
13.380000,0.1599,0.3633,-0.3438,0.525
13.380000,0.1509,0.2313,-0.3820,0.471
13.385000,0.1564,0.1354,-0.4404,0.487
13.386000,0.1718,-0.0083,-0.5096,0.538
13.389000,0.2065,-0.1231,-0.5047,0.559
13.395000,0.2057,-0.2294,-0.5611,0.640
13.410000,0.2003,-0.3703,-0.5749,0.713
13.411000,0.2154,-0.4274,-0.5654,0.741
13.412000,0.2285,-0.4976,-0.5816,0.799
13.422000,0.2490,-0.6144,-0.5445,0.858
13.423000,0.2482,-0.6748,-0.5464,0.903
13.426000,0.2525,-0.7544,-0.4987,0.939
13.430000,0.2691,-0.8243,-0.4742,0.988
13.436000,0.2838,-0.8859,-0.4500,1.033
13.441000,0.2450,-0.8984,-0.4119,1.018
13.446000,0.2077,-0.9180,-0.3873,1.018
13.451000,0.2091,-0.9676,-0.3806,1.061
13.456000,0.1772,-0.9957,-0.3465,1.069
13.461000,0.1541,-1.0081,-0.3245,1.070
13.476000,0.0940,-1.0063,-0.3273,1.062
13.477000,0.0664,-1.0236,-0.3012,1.069
13.477000,0.0185,-0.9978,-0.3252,1.050
13.481000,0.0375,-0.9672,-0.3009,1.014
13.505000,0.0001,-0.9044,-0.3181,0.959
13.506000,-0.0576,-0.9050,-0.3422,0.969
13.507000,-0.0928,-0.9020,-0.3789,0.983
13.508000,-0.0948,-0.9026,-0.3291,0.965
13.508000,-0.1054,-0.8768,-0.3244,0.941
13.512000,-0.1139,-0.8330,-0.3083,0.896
13.518000,-0.1131,-0.8396,-0.2449,0.882
13.522000,-0.1209,-0.8353,-0.1907,0.865
13.527000,-0.0620,-0.8310,-0.1495,0.847
13.534000,-0.0332,-0.8733,-0.0831,0.878
13.537000,-0.0141,-0.8808,-0.0122,0.881
13.542000,0.0658,-0.8764,0.0682,0.882
13.548000,0.0429,-0.8529,0.0975,0.860
13.553000,0.0407,-0.8175,0.0841,0.823
13.558000,0.0375,-0.7594,0.0711,0.764
13.563000,-0.0026,-0.7098,-0.0149,0.710
13.577000,-0.0488,-0.6172,-0.0948,0.626
13.578000,-0.1069,-0.5606,-0.1905,0.602
13.578000,-0.1412,-0.5231,-0.1921,0.575
13.606000,-0.1372,-0.4272,-0.2424,0.510
13.606000,-0.1537,-0.3779,-0.2408,0.474
13.607000,-0.1139,-0.3395,-0.2005,0.410
13.608000,-0.1125,-0.3214,-0.1840,0.387
13.608000,-0.0668,-0.2998,-0.1291,0.333
13.609000,-0.0833,-0.2292,-0.0598,0.251
13.613000,-0.0842,-0.1635,-0.0034,0.184
13.621000,-0.0550,-0.1038,0.0451,0.126
13.622000,-0.0535,-0.0024,0.1396,0.149
13.628000,-0.0496,0.0942,0.1904,0.218
13.634000,-0.0805,0.2002,0.2480,0.329
13.639000,-0.0838,0.3073,0.3055,0.441
13.644000,-0.0994,0.4023,0.3176,0.522
13.649000,-0.0828,0.5175,0.3262,0.617
13.654000,-0.1069,0.5788,0.3663,0.693
13.659000,-0.1048,0.6413,0.3363,0.732
13.664000,-0.0943,0.7180,0.3042,0.785
13.670000,-0.1315,0.7216,0.3000,0.792
13.674000,-0.1051,0.7659,0.2829,0.823
13.679000,-0.1371,0.7958,0.1955,0.831
13.697000,-0.1067,0.7790,0.1822,0.807
13.699000,-0.1407,0.8220,0.1448,0.846
13.700000,-0.1231,0.8111,0.1393,0.832
13.701000,-0.1150,0.7823,0.1357,0.802
13.704000,-0.1054,0.7558,0.1268,0.774
13.709000,-0.1399,0.7032,0.1545,0.733
13.714000,-0.1287,0.6959,0.2045,0.737
13.736000,-0.1116,0.6732,0.2052,0.713
13.737000,-0.1445,0.6350,0.2272,0.690
13.737000,-0.1319,0.6685,0.2482,0.725
13.738000,-0.1084,0.6482,0.2848,0.716
13.739000,-0.0946,0.6160,0.2761,0.682
13.745000,-0.0998,0.5969,0.2761,0.665
13.751000,-0.0752,0.5660,0.2669,0.630
13.755000,-0.0494,0.5291,0.2555,0.590
13.760000,-0.0331,0.4587,0.2323,0.515
13.766000,-0.0290,0.4267,0.2118,0.477
13.771000,0.0051,0.3984,0.1937,0.443
13.776000,0.0201,0.3318,0.1506,0.365
13.780000,0.0386,0.2916,0.1421,0.327
13.797000,0.0549,0.2096,0.1027,0.240
13.798000,0.0533,0.1516,0.0789,0.179
13.799000,0.0445,0.1224,0.0851,0.156
13.831000,0.0583,0.0849,0.0722,0.126
13.832000,0.0349,0.0331,0.0308,0.057
13.833000,0.0461,-0.0091,0.0588,0.075
13.833000,0.0452,-0.0739,0.0248,0.090
13.834000,0.0538,-0.0897,0.0352,0.110
13.835000,0.0458,-0.1161,0.0983,0.159
13.835000,0.0291,-0.2107,0.1078,0.238
13.837000,0.0612,-0.2573,0.0482,0.269
13.841000,0.0405,-0.3241,0.0365,0.329
13.846000,-0.0101,-0.3705,0.0727,0.378
13.853000,-0.0370,-0.3942,0.1053,0.410
13.856000,0.0017,-0.4739,0.1045,0.485
13.861000,-0.0362,-0.4890,0.0821,0.497
13.866000,-0.0432,-0.5412,0.0741,0.548
13.872000,-0.0205,-0.5442,0.0840,0.551
13.876000,-0.0599,-0.5412,0.0558,0.547
13.881000,-0.0743,-0.5383,0.1308,0.559
13.886000,-0.0840,-0.5688,0.1019,0.584
13.891000,-0.0964,-0.5263,0.0889,0.542
13.896000,-0.1281,-0.5329,0.0775,0.554
13.911000,-0.1456,-0.5132,0.0531,0.536
13.912000,-0.1311,-0.5221,0.0543,0.541
13.913000,-0.1083,-0.5180,-0.0028,0.529
13.935000,-0.1144,-0.5138,-0.0260,0.527
13.936000,-0.1397,-0.4988,-0.0200,0.518
13.937000,-0.1341,-0.4456,-0.0150,0.466
13.937000,-0.1107,-0.4882,-0.0686,0.505
13.937000,-0.0791,-0.4242,-0.0552,0.435
13.942000,-0.0858,-0.4094,-0.0022,0.418
13.947000,-0.0781,-0.3873,0.0074,0.395
13.954000,-0.0849,-0.3701,0.0158,0.380
13.957000,-0.0426,-0.3266,0.0074,0.329
13.962000,-0.0207,-0.3155,0.0516,0.320
13.968000,-0.0704,-0.3031,0.0468,0.315
13.972000,-0.0685,-0.2550,0.0647,0.272
13.977000,-0.0378,-0.2128,0.1207,0.248
13.983000,-0.0561,-0.1935,0.1155,0.232
13.988000,-0.0576,-0.1730,0.1307,0.224
13.993000,-0.0782,-0.1178,0.1532,0.208
13.998000,-0.0842,-0.0747,0.1564,0.193
14.002000,-0.0914,-0.0483,0.1670,0.196
14.008000,-0.0675,-0.0041,0.1631,0.177
14.013000,-0.0626,0.0329,0.1570,0.172
14.019000,-0.0959,0.0686,0.1140,0.164
14.023000,-0.0863,0.0816,0.1726,0.209
14.028000,-0.0944,0.1375,0.1740,0.241
14.034000,-0.0786,0.1958,0.2100,0.298
14.059000,-0.0783,0.2098,0.1969,0.298
14.060000,-0.0861,0.2334,0.1778,0.306
14.061000,-0.0424,0.2879,0.1789,0.342
14.062000,-0.0297,0.3030,0.1979,0.363
14.063000,-0.0218,0.2797,0.2142,0.353
14.068000,-0.0306,0.3103,0.2352,0.391
14.070000,-0.0380,0.3827,0.2371,0.452
14.076000,-0.0249,0.4024,0.1768,0.440
14.078000,-0.0416,0.4089,0.1526,0.438
14.108000,-0.0428,0.4166,0.1797,0.456
14.109000,-0.0319,0.4433,0.1362,0.465
14.109000,-0.0163,0.4546,0.1299,0.473
14.110000,-0.0615,0.4454,0.1428,0.472
14.111000,-0.0660,0.4435,0.1199,0.464
14.111000,-0.0405,0.4726,0.1032,0.485
14.114000,-0.0306,0.5041,0.0292,0.506
14.120000,-0.0182,0.4853,0.0403,0.487
14.124000,-0.0453,0.4725,0.1409,0.495
14.129000,-0.0091,0.4382,0.2223,0.491
14.146000,0.0508,0.3502,0.2210,0.417
14.147000,0.0951,0.2671,0.2409,0.372
14.148000,0.1228,0.2175,0.2653,0.364
14.174000,0.1710,0.2015,0.2896,0.392
14.175000,0.1573,0.1592,0.2700,0.351
14.176000,0.0951,0.1623,0.2233,0.292
14.176000,0.0441,0.2179,0.1842,0.289
14.177000,-0.0080,0.2101,0.1110,0.238
14.177000,-0.0086,0.2083,-0.0146,0.209
14.180000,-0.0676,0.2447,-0.0882,0.269
14.185000,-0.0980,0.2224,-0.0587,0.250
14.190000,-0.0964,0.1943,-0.1498,0.264
14.195000,-0.1096,0.1363,-0.1500,0.230
14.200000,-0.0919,0.0725,-0.1349,0.179
14.205000,-0.0578,0.0088,-0.1667,0.177
14.210000,-0.0240,-0.0572,-0.0877,0.107
14.215000,0.0312,-0.0849,-0.0642,0.111
14.229000,0.0959,-0.1448,-0.0266,0.176
14.230000,0.1270,-0.1687,0.0528,0.218
14.231000,0.1101,-0.1770,0.1167,0.239
14.256000,0.1257,-0.1830,0.1376,0.261
14.257000,0.0934,-0.1806,0.1387,0.246
14.257000,0.0561,-0.1973,0.1833,0.275
14.258000,0.0415,-0.1674,0.1411,0.223
14.259000,-0.0018,-0.1447,0.1223,0.189
14.261000,-0.0010,-0.1962,0.0885,0.215
14.266000,-0.0111,-0.2070,0.0612,0.216
14.271000,-0.0226,-0.2214,-0.0087,0.223
14.276000,-0.0654,-0.2190,-0.0437,0.233
14.281000,-0.0723,-0.2285,-0.1096,0.264
14.286000,-0.0697,-0.2632,-0.1254,0.300
14.291000,-0.0876,-0.2379,-0.0902,0.269
14.296000,-0.0578,-0.2916,-0.1164,0.319
14.303000,-0.0412,-0.2711,-0.0710,0.283
14.306000,-0.0642,-0.3080,-0.0641,0.321
14.311000,-0.0430,-0.3341,-0.0144,0.337
14.316000,-0.0541,-0.3230,0.0135,0.328
14.321000,-0.0365,-0.3275,0.0546,0.334
14.327000,-0.0333,-0.2938,0.0766,0.305
14.332000,-0.0566,-0.2852,0.0845,0.303
14.351000,-0.0655,-0.2587,0.1212,0.293
14.352000,-0.0767,-0.2645,0.0636,0.283
14.353000,-0.0856,-0.2823,0.0900,0.308
14.354000,-0.0864,-0.2366,0.1070,0.274
14.357000,-0.0931,-0.2377,0.0942,0.272
14.362000,-0.0879,-0.2160,0.0816,0.247
14.367000,-0.0794,-0.2146,0.0355,0.232
14.391000,-0.0877,-0.1906,0.0229,0.211
14.392000,-0.0758,-0.1785,0.0079,0.194
14.393000,-0.0925,-0.1652,0.0297,0.192
14.394000,-0.1058,-0.1173,0.0393,0.163
14.394000,-0.0950,-0.0909,-0.0111,0.132
14.398000,-0.0719,-0.1164,0.0409,0.143
14.407000,-0.0939,-0.1061,0.0934,0.170
14.408000,-0.0706,-0.0496,0.1253,0.152
14.413000,-0.0714,-0.0067,0.1060,0.128
14.418000,-0.0934,0.0098,0.1166,0.150
14.425000,-0.0702,0.0654,0.1388,0.169
14.428000,-0.0390,0.0884,0.1679,0.194
14.433000,-0.0639,0.0602,0.0909,0.126
14.449000,-0.0375,0.0513,0.1415,0.155
14.450000,-0.0469,0.0578,0.1298,0.150
14.451000,-0.0180,0.0809,0.1598,0.180
14.473000,-0.0286,0.0789,0.1456,0.168
14.474000,-0.0080,0.0840,0.1136,0.142
14.475000,-0.0254,0.0736,0.1234,0.146
14.475000,-0.0482,0.0847,0.1128,0.149
14.476000,-0.0600,0.0909,0.1092,0.154
14.478000,-0.0882,0.1433,0.0592,0.178
14.483000,-0.0781,0.1668,0.0403,0.189
14.488000,-0.1154,0.1569,0.0642,0.205
14.494000,-0.1050,0.2040,0.0879,0.246
14.498000,-0.0613,0.2294,0.0962,0.256
14.503000,-0.0501,0.2427,0.0428,0.251
14.508000,-0.0685,0.2511,0.0459,0.264
14.513000,-0.0370,0.2393,0.0386,0.245
14.520000,-0.0425,0.2394,0.0282,0.245
14.523000,-0.0657,0.2145,0.0097,0.225
14.529000,-0.0424,0.2398,-0.0013,0.243
14.534000,-0.0076,0.2078,-0.0454,0.213
14.539000,-0.0205,0.2188,-0.0381,0.223
14.544000,-0.0095,0.2084,-0.0320,0.211
14.549000,0.0085,0.2017,-0.0341,0.205
14.565000,0.0382,0.1570,-0.0626,0.173
14.566000,0.0560,0.1399,-0.0695,0.166
14.567000,0.0723,0.1361,-0.0642,0.167
14.600000,0.0660,0.1145,-0.1054,0.169
14.602000,0.0564,0.1227,-0.1093,0.174
14.602000,0.0540,0.0739,-0.1559,0.181
14.603000,0.0506,0.0694,-0.1866,0.205
14.604000,0.0176,0.0495,-0.1884,0.196
14.604000,0.0193,0.0179,-0.2031,0.205
14.606000,0.0319,-0.0122,-0.2355,0.238
14.606000,-0.0325,0.0077,-0.2486,0.251
14.610000,-0.0347,-0.0141,-0.2343,0.237
14.615000,-0.0701,-0.0832,-0.2864,0.306
14.621000,-0.0604,-0.1184,-0.3453,0.370
14.625000,-0.0389,-0.1344,-0.3588,0.385
14.630000,-0.0297,-0.1799,-0.3118,0.361
14.637000,-0.0303,-0.2416,-0.2952,0.383
14.640000,-0.0108,-0.2707,-0.2588,0.375
14.646000,-0.0046,-0.3162,-0.2634,0.412
14.650000,0.0036,-0.3398,-0.2318,0.411
14.656000,0.0367,-0.3634,-0.2126,0.423
14.661000,0.0265,-0.4120,-0.1628,0.444
14.665000,0.0605,-0.3996,-0.1159,0.420
14.683000,0.0606,-0.3609,-0.0787,0.374
14.684000,0.0498,-0.3150,-0.0692,0.326
14.685000,0.0018,-0.3015,-0.0561,0.307
14.686000,0.0050,-0.2736,-0.0442,0.277
14.721000,-0.0494,-0.2349,-0.0168,0.241
14.722000,-0.0500,-0.2035,-0.0457,0.215
14.723000,-0.0689,-0.2032,-0.0815,0.230
14.724000,-0.0964,-0.1467,-0.0430,0.181
14.724000,-0.1286,-0.1178,-0.0641,0.186
14.725000,-0.1394,-0.0745,-0.1111,0.193
14.726000,-0.1454,-0.0254,-0.1533,0.213
14.726000,-0.1361,-0.0288,-0.1238,0.186
14.732000,-0.1043,-0.0897,-0.0420,0.144
14.737000,-0.0236,-0.1121,0.0126,0.115
14.742000,-0.0004,-0.1501,0.0508,0.158
14.747000,0.0336,-0.1557,0.0598,0.170
14.752000,0.0450,-0.1339,0.0686,0.157
14.757000,0.0495,-0.1193,0.0839,0.154
14.762000,-0.0242,-0.0494,0.0204,0.059
14.767000,-0.0865,0.0162,-0.0670,0.111
14.790000,-0.1590,0.0255,-0.1164,0.199
14.792000,-0.1740,0.0656,-0.1534,0.241
14.793000,-0.2129,0.1054,-0.2232,0.326
14.794000,-0.2089,0.0914,-0.2236,0.319
14.794000,-0.1350,0.0871,-0.2373,0.287
14.797000,-0.1081,0.0769,-0.2490,0.282
14.801000,-0.0980,0.0300,-0.2599,0.279
14.830000,-0.0619,-0.0118,-0.2260,0.235
14.831000,-0.0630,-0.0342,-0.1917,0.205
14.831000,-0.0806,-0.0731,-0.1618,0.195
14.832000,-0.0766,-0.0819,-0.0885,0.143
14.832000,-0.0454,-0.0812,-0.0328,0.099
14.833000,-0.0325,-0.0792,0.0484,0.098
14.842000,-0.0544,-0.0381,0.0614,0.090
14.843000,-0.0381,-0.0163,0.0636,0.076
14.848000,-0.0398,0.0112,0.0803,0.090
14.852000,-0.0627,0.0338,0.0701,0.100
14.857000,-0.0972,0.0502,0.0734,0.132
14.863000,-0.1221,0.0913,0.0369,0.157
14.868000,-0.1550,0.1167,0.0001,0.194
14.873000,-0.1556,0.0921,-0.0562,0.189
14.878000,-0.1502,0.0996,-0.1202,0.217
14.883000,-0.1865,0.0929,-0.1540,0.259
14.901000,-0.2013,0.1088,-0.1784,0.290
14.903000,-0.1804,0.0818,-0.2121,0.290
14.904000,-0.1372,0.0242,-0.1808,0.228
14.905000,-0.0931,0.0039,-0.1536,0.180
14.908000,-0.0601,0.0194,-0.1104,0.127
14.913000,-0.0224,-0.0721,-0.0666,0.101
14.918000,0.0115,-0.0619,-0.0647,0.090
14.936000,-0.0177,-0.0732,-0.0440,0.087
14.937000,-0.0227,-0.0737,0.0040,0.077
14.938000,-0.0169,-0.0730,0.0480,0.089
14.938000,-0.0171,-0.0676,0.0145,0.071
14.944000,-0.0255,-0.0563,0.0264,0.067
14.949000,-0.0208,-0.0641,0.0264,0.072
14.955000,-0.0091,-0.0884,-0.0128,0.090
14.959000,-0.0260,-0.0568,-0.0018,0.062
14.964000,-0.0429,-0.0693,-0.0382,0.090
14.969000,-0.0134,-0.0794,-0.0589,0.100
14.975000,-0.0221,-0.0418,-0.0996,0.110
14.980000,-0.0369,-0.0034,-0.1104,0.116
14.984000,-0.0231,-0.0187,-0.1127,0.117
15.000000,-0.0201,-0.0220,-0.1721,0.175
15.002000,0.0006,-0.0039,-0.1433,0.143
15.002000,-0.0359,-0.0204,-0.1563,0.162
15.031000,-0.0224,-0.0320,-0.1469,0.152
15.033000,-0.0043,-0.0257,-0.0833,0.087
15.033000,0.0127,-0.0265,-0.0451,0.054
15.034000,0.0164,-0.0404,-0.0012,0.044
15.035000,-0.0049,-0.0435,0.0257,0.051
15.036000,-0.0071,-0.0430,0.0441,0.062
15.036000,0.0110,-0.0591,0.0185,0.063
15.045000,-0.0127,-0.0609,0.0146,0.064
15.047000,-0.0302,-0.0496,0.0474,0.075
15.050000,-0.0075,-0.0775,0.0966,0.124
15.059000,-0.0216,-0.0874,0.0992,0.134
15.060000,-0.0154,-0.1079,0.0710,0.130
15.065000,-0.0019,-0.0701,0.0421,0.082
15.069000,0.0054,-0.0896,0.0111,0.090
15.075000,-0.0145,-0.0650,0.0088,0.067
15.080000,-0.0140,-0.0809,-0.0291,0.087
15.085000,-0.0040,-0.0611,-0.0123,0.062
15.090000,-0.0144,-0.0534,0.0078,0.056
15.096000,-0.0139,-0.0611,-0.0150,0.064
15.100000,-0.0027,-0.0688,-0.0305,0.075
15.119000,0.0321,-0.0728,-0.0151,0.081
15.120000,-0.0096,-0.0614,0.0144,0.064
15.121000,0.0049,-0.0477,-0.0014,0.048
15.123000,0.0121,0.0099,0.0482,0.051
15.125000,-0.0022,-0.0114,0.0264,0.029
15.130000,-0.0058,-0.0112,0.0216,0.025
15.136000,0.0333,0.0069,-0.0069,0.035
15.159000,0.0447,0.0070,-0.0031,0.045
15.161000,0.0383,0.0392,0.0185,0.058
15.162000,0.0249,0.0224,0.0413,0.053
15.163000,0.0626,0.0152,0.0260,0.069
15.163000,0.0690,0.0117,0.0357,0.079
15.167000,0.0387,-0.0167,0.0264,0.050
15.174000,0.0525,-0.0046,0.0515,0.074
15.176000,0.0747,-0.0186,0.0288,0.082
15.182000,0.0931,-0.0017,0.0644,0.113
15.190000,0.0816,-0.0003,0.0225,0.085
15.192000,0.0585,-0.0037,0.0392,0.070
15.197000,0.0641,-0.0047,0.0354,0.073
15.202000,0.0387,-0.0010,0.0233,0.045
15.207000,0.0480,0.0075,0.0565,0.075
15.212000,0.0750,-0.0078,0.0279,0.080
15.217000,0.0398,-0.0052,0.0316,0.051
15.234000,0.0454,-0.0026,0.0188,0.049
15.236000,0.0259,-0.0048,0.0357,0.044
15.236000,0.0006,-0.0271,0.0286,0.039
15.267000,0.0146,-0.0053,0.0454,0.048
15.268000,0.0095,-0.0051,0.0252,0.027
15.269000,0.0223,-0.0441,0.0587,0.077
15.269000,0.0443,-0.0684,0.0383,0.090
15.270000,0.0103,-0.0593,0.0013,0.060
15.271000,0.0264,-0.0586,0.0145,0.066
15.271000,0.0413,-0.0804,0.0346,0.097
15.272000,0.0418,-0.0926,0.0558,0.116
15.277000,0.0328,-0.1106,0.0661,0.133
15.283000,0.0226,-0.0893,0.0395,0.100
15.289000,0.0434,-0.1120,0.0096,0.121
15.292000,0.0629,-0.0681,-0.0107,0.093
15.298000,0.0300,-0.0555,-0.0286,0.069
15.303000,0.0351,-0.0654,-0.0499,0.089
15.307000,0.0353,-0.0812,-0.0402,0.097
15.313000,0.0485,-0.0435,-0.0329,0.073
15.318000,0.0353,-0.0452,-0.0850,0.102
15.337000,0.0267,-0.0457,-0.0511,0.074
15.338000,0.0444,-0.0735,-0.0400,0.095
15.339000,0.0357,-0.0678,-0.0360,0.085
15.339000,0.0258,-0.0194,-0.0190,0.037
15.343000,-0.0078,0.0084,0.0040,0.012
15.348000,0.0620,-0.0435,-0.0114,0.077
15.353000,0.1181,-0.0155,-0.0009,0.119
15.374000,0.1286,-0.0945,0.0590,0.170
15.375000,0.1153,-0.1242,0.1236,0.210
15.376000,0.1533,-0.1428,0.1848,0.279
15.377000,0.1351,-0.1661,0.1990,0.292
15.378000,0.1185,-0.1227,0.1704,0.241
15.384000,0.1119,-0.0453,0.1697,0.208
15.389000,0.0736,0.0029,0.0590,0.094
15.394000,0.0511,0.0269,0.0576,0.082
15.399000,-0.0231,0.0840,0.0733,0.114
15.403000,-0.0246,0.0966,0.0930,0.136
15.409000,-0.0047,0.0913,-0.0070,0.092
15.414000,-0.0099,0.1027,-0.0587,0.119
15.419000,-0.0053,0.1140,-0.0744,0.136
15.435000,-0.0364,0.0812,-0.0831,0.122
15.436000,0.0076,0.0416,-0.1121,0.120
15.437000,0.0181,0.0309,-0.0925,0.099
15.469000,0.0320,0.0202,-0.0958,0.103
15.470000,0.0161,0.0180,-0.0768,0.080
15.471000,0.0133,0.0312,-0.0274,0.044
15.471000,0.0307,0.0064,-0.0070,0.032
15.474000,0.0454,0.0198,-0.0046,0.050
15.474000,0.0266,0.0390,0.0822,0.095
15.475000,0.0291,0.0580,0.0950,0.115
15.476000,0.0694,0.0164,0.0770,0.105
15.480000,0.0988,0.0582,0.1402,0.181
15.485000,0.0674,0.0723,0.1332,0.166
15.489000,0.0910,0.0530,0.1578,0.190
15.495000,0.0754,0.0742,0.1268,0.165
15.500000,0.0615,0.0690,0.1012,0.137
15.506000,0.0454,0.0579,0.0750,0.105
15.510000,0.0141,0.0647,-0.0174,0.068
15.515000,0.0341,0.0192,-0.0306,0.050
15.521000,0.0623,-0.0033,-0.0285,0.069
15.525000,0.0356,0.0099,-0.0492,0.062
15.530000,0.0569,0.0160,-0.0595,0.084
15.536000,0.0685,0.0018,-0.0698,0.098
15.554000,0.1217,0.0103,-0.0720,0.142
15.555000,0.1047,0.0104,-0.0649,0.124
15.556000,0.1094,0.0306,-0.0141,0.114
15.557000,0.1084,0.0424,-0.0111,0.117
15.560000,0.0850,0.0421,-0.0329,0.100
15.565000,0.0927,0.0193,-0.0297,0.099
15.594000,0.0923,0.0311,-0.0074,0.098
15.595000,0.0896,0.0392,-0.0219,0.100
15.596000,0.0953,0.0033,-0.0075,0.096
15.596000,0.1165,-0.0086,-0.0442,0.125
15.597000,0.0913,0.0033,-0.0733,0.117
15.597000,0.0973,0.0092,-0.0817,0.127
15.601000,0.1010,-0.0017,-0.0864,0.133
15.607000,0.0894,-0.0231,-0.1266,0.157
15.611000,0.0910,0.0031,-0.1417,0.168
15.617000,0.0926,0.0019,-0.1566,0.182
15.623000,0.1322,-0.0232,-0.1265,0.184
15.627000,0.0980,-0.0052,-0.1360,0.168
15.631000,0.0995,-0.0183,-0.0756,0.126
15.637000,0.1012,-0.0277,-0.0504,0.116
15.642000,0.1268,-0.0430,0.0244,0.136
15.647000,0.0976,-0.0534,0.0678,0.130
15.652000,0.0854,-0.0649,0.0955,0.144
15.669000,0.0804,-0.0502,0.0791,0.123
15.670000,0.0837,-0.0499,0.0641,0.117
15.671000,0.0728,-0.0757,0.0931,0.140
15.676000,0.0323,-0.1107,0.0994,0.152
15.680000,0.0135,-0.0898,0.1496,0.175
15.682000,0.0519,-0.0689,0.1816,0.201
15.687000,0.0661,-0.0518,0.1400,0.163
15.702000,0.0660,-0.0551,0.1298,0.156
15.703000,0.0707,-0.0726,0.0817,0.130
15.704000,0.0754,-0.0769,0.1267,0.166
15.716000,0.0552,-0.0515,0.0812,0.111
15.717000,0.0388,-0.0251,0.0548,0.072
15.718000,0.0047,-0.0666,0.0382,0.077
15.728000,0.0017,-0.0448,0.0060,0.045
15.730000,-0.0168,-0.0220,0.0110,0.030
15.733000,-0.0066,-0.0207,0.0040,0.022
15.738000,-0.0097,0.0007,-0.0040,0.011
15.743000,-0.0093,-0.0041,0.0190,0.022
15.748000,0.0006,-0.0209,0.0063,0.022
15.753000,-0.0040,0.0113,0.0164,0.020
15.768000,-0.0016,0.0158,-0.0032,0.016
15.769000,0.0055,-0.0058,0.0250,0.026
15.770000,0.0102,-0.0343,0.0340,0.049
15.800000,0.0063,-0.0306,0.0347,0.047
15.801000,0.0345,-0.0244,0.0272,0.050
15.802000,0.0314,-0.0433,0.0278,0.060
15.802000,0.0306,-0.0264,0.0569,0.070
15.803000,0.0180,-0.0297,0.0774,0.085
15.804000,0.0374,-0.0129,0.0562,0.069
15.804000,0.0412,-0.0033,0.0054,0.042
15.814000,0.0236,-0.0472,0.0547,0.076
15.815000,0.0132,-0.0172,0.0359,0.042
15.819000,0.0253,-0.0550,0.0304,0.068
15.825000,-0.0053,-0.0415,0.0391,0.057
15.829000,0.0131,-0.0257,0.0206,0.035
15.834000,0.0275,-0.0505,0.0284,0.064
15.839000,0.0133,-0.0322,-0.0196,0.040
15.843000,0.0051,-0.0177,0.0185,0.026
15.849000,0.0172,-0.0283,0.0054,0.034
15.854000,0.0126,-0.0316,0.0043,0.034
15.859000,0.0055,-0.0029,-0.0312,0.032
15.864000,0.0282,-0.0254,-0.0298,0.048
15.869000,0.0411,-0.0324,0.0170,0.055
15.885000,0.0219,-0.0119,-0.0223,0.033
15.887000,-0.0080,-0.0213,-0.0366,0.043
15.887000,0.0491,-0.0258,-0.0435,0.070
15.920000,0.0164,-0.0232,-0.0385,0.048
15.922000,0.0078,-0.0229,-0.0159,0.029
15.922000,0.0219,-0.0441,-0.0185,0.053
15.923000,0.0442,0.0050,-0.0199,0.049
15.924000,0.0318,-0.0163,0.0192,0.041
15.924000,0.0173,-0.0126,0.0187,0.028
15.925000,-0.0004,-0.0196,0.0052,0.020
15.927000,0.0022,0.0019,0.0050,0.006
15.930000,0.0347,-0.0444,0.0392,0.069
