time,ax,ay,az,aT
0.004000,-0.0509,0.0496,-0.0266,0.076
0.005000,0.0966,-0.0094,-0.0131,0.098
0.005000,0.2093,-0.1003,-0.1647,0.285
0.006000,0.2040,-0.1647,-0.2649,0.373
0.012000,0.1898,-0.1879,-0.3318,0.426
0.031000,0.1248,-0.1439,-0.3592,0.407
0.032000,0.0653,-0.1034,-0.3259,0.348
0.032000,0.0733,-0.0984,-0.2377,0.268
0.033000,0.0289,-0.0849,-0.2240,0.241
0.037000,-0.0332,-0.0833,-0.1554,0.179
0.041000,-0.0130,-0.0697,-0.0546,0.089
0.047000,0.0304,-0.1327,0.1059,0.172
0.054000,0.1269,-0.1119,0.1884,0.253
0.058000,0.1357,-0.1342,0.1297,0.231
0.062000,0.1456,-0.1183,0.0699,0.200
0.070000,0.1439,-0.0975,0.0257,0.176
0.071000,0.1017,-0.0944,-0.0330,0.143
0.077000,0.1195,-0.0936,-0.1300,0.200
0.083000,0.1137,-0.0986,-0.2150,0.262
0.087000,0.0929,-0.0724,-0.2736,0.298
0.092000,0.0383,-0.0568,-0.2534,0.263
0.097000,-0.0001,-0.0724,-0.2367,0.248
0.102000,-0.0318,-0.0652,-0.2008,0.214
0.108000,0.0073,-0.0272,-0.1337,0.137
0.113000,0.0295,-0.0216,-0.0750,0.083
0.127000,0.0984,-0.0542,-0.0414,0.120
0.128000,0.1062,-0.0557,-0.0653,0.137
0.128000,0.0542,-0.0210,-0.1145,0.128
0.148000,-0.0346,0.0008,-0.2333,0.236
0.149000,0.0460,0.0183,-0.2757,0.280
0.149000,0.0189,0.0206,-0.1463,0.149
0.150000,-0.0659,0.0174,-0.1094,0.129
0.153000,-0.0613,-0.0108,0.0265,0.068
0.158000,-0.0593,0.0330,0.0760,0.102
0.163000,-0.0215,0.0419,0.0754,0.089
0.168000,0.0045,0.0205,0.1862,0.187
0.173000,0.0280,0.0336,0.2159,0.220
0.178000,-0.0061,0.0951,0.1180,0.152
0.183000,0.0461,0.0677,0.0780,0.113
0.188000,0.0835,0.0112,0.0805,0.117
0.193000,0.0816,0.0145,0.0699,0.108
0.200000,0.0717,0.0356,0.0192,0.082
0.204000,0.0600,0.0173,0.0211,0.066
0.209000,0.0940,-0.1884,0.0634,0.220
0.214000,0.1886,-0.3189,0.2812,0.465
0.219000,0.1182,-0.0497,0.2813,0.309
0.224000,0.0931,0.1017,0.2046,0.247
0.229000,0.0895,0.1217,0.2412,0.285
0.248000,0.0980,0.1034,0.1714,0.223
0.249000,0.0540,0.0623,0.1274,0.152
0.249000,0.0530,0.0307,0.1160,0.131
0.250000,0.0306,0.0138,0.1237,0.128
0.254000,-0.2060,-0.0078,0.1241,0.241
0.259000,-1.0620,-0.0797,0.3733,1.128
0.265000,-1.1490,0.1995,0.8889,1.466
0.274000,-0.3556,0.4919,0.8937,1.080
0.275000,0.0122,0.5571,0.5999,0.819
0.280000,0.0705,0.4640,0.2804,0.547
0.287000,0.0594,0.2837,0.0007,0.290
0.290000,-0.0729,0.0478,-0.0910,0.126
0.295000,-0.1231,-0.0475,-0.0981,0.164
0.302000,-0.1027,-0.0704,-0.0866,0.152
0.305000,-0.0610,0.0088,-0.1159,0.131
0.310000,0.0010,0.0592,-0.1202,0.134
0.317000,0.0192,0.0903,-0.1052,0.140
0.320000,0.0216,0.1223,-0.1019,0.161
0.325000,0.0037,0.1407,-0.0431,0.147
0.330000,0.0164,0.0666,0.0076,0.069
0.336000,0.0343,0.0591,0.0407,0.080
0.340000,0.0536,0.0525,0.0513,0.091
0.345000,0.0765,0.0531,0.0153,0.094
0.365000,0.0815,0.0812,0.0104,0.116
0.366000,0.0851,0.0642,-0.0104,0.107
0.367000,0.0909,0.0750,0.0069,0.118
0.367000,0.0703,0.0825,0.0682,0.128
0.371000,0.0625,0.1107,0.1267,0.179
0.376000,0.0469,0.1141,0.1633,0.205
0.381000,0.0390,0.1345,0.2246,0.265
0.393000,0.0448,0.1457,0.3201,0.355
0.394000,0.0137,0.1142,0.3853,0.402
0.396000,0.0257,0.0650,0.4598,0.465
0.409000,0.1108,0.1056,0.5459,0.567
0.410000,0.1086,0.1223,0.6379,0.659
0.412000,0.1452,0.1197,0.6510,0.678
0.424000,0.1128,0.1514,0.7635,0.786
0.425000,0.0915,0.1813,0.8296,0.854
0.426000,0.0392,0.1809,0.9247,0.943
0.431000,-0.0085,0.2455,1.0392,1.068
0.437000,0.0308,0.2843,1.0597,1.098
0.442000,0.0473,0.3294,1.1250,1.173
0.447000,0.0803,0.3441,1.2037,1.254
0.465000,0.0919,0.3931,1.3232,1.383
0.466000,0.0199,0.3722,1.3843,1.434
0.467000,-0.0243,0.4633,1.2568,1.340
0.470000,-0.0512,0.4964,1.2374,1.334
0.472000,-0.0255,0.4441,1.1766,1.258
0.477000,-0.0024,0.4955,1.1152,1.220
0.482000,-0.0280,0.5466,1.0398,1.175
0.495000,-0.0481,0.5996,0.9852,1.154
0.497000,-0.0115,0.6114,0.9970,1.170
0.498000,-0.0078,0.5821,1.0500,1.201
0.511000,0.0131,0.5665,1.0941,1.232
0.512000,0.0119,0.4583,1.1267,1.216
0.513000,-0.0040,0.3795,1.1254,1.188
0.525000,0.0181,0.2344,1.0459,1.072
0.526000,0.0231,0.1438,0.9172,0.929
0.527000,0.0379,0.0946,0.7617,0.769
0.537000,0.0906,0.1203,0.6096,0.628
0.538000,0.1556,0.1548,0.6164,0.654
0.543000,0.1813,0.0965,0.5342,0.572
0.548000,0.1789,0.0761,0.4899,0.527
0.565000,0.1316,0.0622,0.3544,0.383
0.569000,0.0813,0.0561,0.1552,0.184
0.570000,0.1021,0.0578,-0.0227,0.119
0.571000,0.0571,0.1535,-0.1640,0.232
0.575000,0.0730,0.1707,-0.2711,0.329
0.578000,0.0690,0.1755,-0.3249,0.376
0.596000,0.0832,0.2141,-0.3912,0.454
0.597000,0.1367,0.1821,-0.3796,0.443
0.598000,0.1501,0.1984,-0.2218,0.333
0.609000,0.1141,0.2212,-0.0456,0.253
0.610000,0.1897,0.1836,0.1451,0.301
0.610000,0.1573,0.1049,0.3623,0.409
0.613000,0.0419,-0.0285,0.5838,0.586
0.621000,-0.0924,-0.1908,0.5282,0.569
0.624000,-0.1418,-0.2571,0.3689,0.471
0.629000,-0.1117,-0.3128,0.1853,0.380
0.635000,-0.0035,-0.3034,0.1083,0.322
0.639000,0.1155,-0.2499,-0.0265,0.277
0.644000,0.1617,-0.1979,-0.1356,0.289
0.649000,0.1417,-0.1628,-0.2189,0.307
0.654000,0.1432,-0.1927,-0.2513,0.348
0.659000,0.0984,-0.1957,-0.2745,0.351
0.664000,-0.0044,-0.2272,-0.2941,0.372
0.678000,-0.1588,-0.2769,-0.1999,0.377
0.679000,-0.2582,-0.3178,-0.0631,0.414
0.679000,-0.1880,-0.4236,0.0428,0.465
0.700000,-0.1029,-0.4836,-0.0706,0.499
0.701000,-0.0859,-0.4789,-0.0573,0.490
0.702000,-0.1477,-0.4171,-0.1204,0.459
0.702000,-0.1621,-0.3985,-0.2626,0.504
0.704000,-0.0393,-0.4616,-0.3363,0.572
0.710000,0.0451,-0.5222,-0.4366,0.682
0.715000,0.0921,-0.5158,-0.5071,0.729
0.719000,0.0756,-0.4878,-0.5874,0.767
0.725000,0.0123,-0.4717,-0.6549,0.807
0.730000,-0.0453,-0.4763,-0.7365,0.878
0.736000,-0.1188,-0.4453,-0.8144,0.936
0.740000,-0.1393,-0.4096,-0.8491,0.953
0.745000,-0.0969,-0.4014,-0.8972,0.988
0.751000,-0.1415,-0.3379,-0.9301,1.000
0.755000,-0.1774,-0.2323,-0.9193,0.965
0.760000,-0.2219,-0.1764,-0.9438,0.985
0.765000,-0.2812,-0.1940,-0.9762,1.034
0.770000,-0.3486,-0.1961,-1.0239,1.099
0.775000,-0.4222,-0.1299,-1.0909,1.177
0.780000,-0.4941,-0.1167,-1.1429,1.251
0.802000,-0.5260,-0.0739,-1.1718,1.287
0.804000,-0.5766,-0.0118,-1.1853,1.318
0.805000,-0.6268,0.0731,-1.1608,1.321
0.805000,-0.6936,0.1512,-1.0684,1.283
0.806000,-0.7603,0.2102,-0.9823,1.260
0.811000,-0.8175,0.2479,-0.9359,1.267
0.816000,-0.8229,0.2857,-0.7916,1.177
0.830000,-0.7845,0.2622,-0.6365,1.044
0.831000,-0.7703,0.1842,-0.4965,0.935
0.832000,-0.7112,0.0526,-0.3876,0.812
0.844000,-0.6014,0.0656,-0.2582,0.658
0.845000,-0.5239,0.0517,-0.1785,0.556
0.847000,-0.4918,0.0082,-0.0930,0.501
0.857000,-0.4592,-0.0269,0.0487,0.463
0.858000,-0.4556,-0.1067,0.0762,0.474
0.861000,-0.4582,-0.1286,0.1367,0.495
0.868000,-0.4565,-0.1491,0.1564,0.505
0.871000,-0.8036,-0.0560,0.4214,0.909
0.877000,-1.2760,0.0591,0.8579,1.539
0.882000,-1.4042,0.1670,1.0182,1.743
0.897000,-1.1168,0.2253,0.8708,1.434
0.898000,-0.6534,0.2354,0.5208,0.868
0.899000,-0.3322,0.1549,0.2283,0.432
0.920000,-0.2781,0.0874,0.0976,0.307
0.921000,-0.3634,0.0355,0.0709,0.372
0.922000,0.2163,-0.2042,0.2998,0.422
0.922000,1.6540,-0.5966,1.4202,2.260
0.923000,0.8657,-0.3646,2.3449,2.526
0.927000,-0.7536,-0.1274,1.5401,1.719
0.932000,-0.6900,-0.3783,0.0681,0.790
0.938000,-0.1829,-0.4442,-0.6975,0.847
0.942000,0.0741,-0.3821,-0.8269,0.914
0.947000,0.0891,-0.2556,-0.7294,0.778
0.952000,-0.1695,-0.1678,-0.5770,0.624
0.958000,-0.4165,-0.0401,-0.5211,0.668
0.962000,-0.5280,0.1059,-0.4658,0.712
0.969000,-0.4446,0.1696,-0.3475,0.589
0.973000,-0.2572,0.2222,-0.4647,0.576
0.978000,-0.0706,0.0677,-0.3391,0.353
0.983000,0.0801,-0.4007,-0.1052,0.422
0.988000,0.2200,-0.8341,0.0377,0.863
0.993000,0.1930,-0.6807,0.0258,0.708
0.998000,0.1885,-0.3918,-0.0164,0.435
1.015000,0.2923,-0.1465,-0.1418,0.356
1.018000,0.0629,-0.0483,-0.1989,0.214
1.018000,-0.2681,-0.0275,-0.1558,0.311
1.019000,-0.2919,-0.1546,-0.1905,0.381
1.024000,-0.2299,-0.0936,-0.1604,0.296
1.028000,-0.2484,-0.0384,-0.1493,0.292
1.042000,-0.3395,0.0025,-0.0710,0.347
1.044000,-0.3970,0.0496,-0.1132,0.416
1.044000,-0.2281,0.0081,-0.2719,0.355
1.048000,0.0737,-0.0825,-0.4227,0.437
1.056000,0.2796,-0.1432,-0.5887,0.667
1.058000,0.3655,-0.1571,-0.7355,0.836
1.063000,0.3076,-0.1975,-0.8450,0.921
1.069000,0.1936,-0.2428,-0.7642,0.825
1.073000,0.0974,-0.2778,-0.5230,0.600
1.078000,0.1533,-0.3150,-0.2752,0.446
1.083000,0.2317,-0.2654,-0.0057,0.352
1.088000,0.2330,-0.2735,-0.0053,0.359
1.093000,0.2569,-0.2725,0.0959,0.387
1.098000,0.2373,-0.2483,0.1867,0.391
1.113000,0.2405,-0.1866,0.2422,0.389
1.115000,0.2030,-0.1674,0.1198,0.289
1.115000,0.1561,-0.1200,0.0122,0.197
1.137000,0.2143,-0.0751,-0.0095,0.227
1.138000,0.2211,-0.0769,-0.0038,0.234
1.138000,0.2482,-0.0751,0.1283,0.289
1.139000,0.2646,-0.1345,0.1586,0.337
1.139000,0.3844,-0.1956,0.2859,0.517
1.144000,0.3410,-0.1689,0.3559,0.521
1.149000,0.2550,-0.1537,0.4130,0.509
1.155000,0.2431,-0.1152,0.3975,0.480
1.160000,0.2273,-0.0829,0.4428,0.505
1.165000,0.2201,-0.0628,0.5313,0.579
1.170000,0.1922,-0.0067,0.6279,0.657
1.175000,0.0964,-0.0136,0.6679,0.675
1.180000,-0.0197,0.0673,0.7518,0.755
1.186000,-0.0748,0.1534,0.8101,0.828
1.190000,-0.1050,0.2354,0.9098,0.946
1.195000,-0.1129,0.2761,1.0651,1.106
1.200000,-0.1232,0.3005,1.1387,1.184
1.205000,-0.1611,0.2927,1.0963,1.146
1.210000,-0.2083,0.3091,0.9714,1.040
1.215000,-0.2464,0.3416,0.8510,0.950
1.230000,-0.2529,0.3719,0.8119,0.928
1.231000,-0.2921,0.3848,0.8671,0.993
1.232000,-0.3426,0.4133,1.0859,1.211
1.253000,-0.3979,0.3720,1.1113,1.238
1.254000,-0.2544,0.3557,0.9707,1.065
1.255000,-0.0165,0.3722,0.9946,1.062
1.255000,0.1351,0.4206,1.0918,1.178
1.256000,0.1251,0.4938,0.8697,1.008
1.261000,0.0165,0.4988,0.8235,0.963
1.266000,-0.1201,0.4700,0.8981,1.021
1.271000,-0.2248,0.3677,0.8951,0.993
1.276000,-0.1353,0.2158,0.7429,0.785
1.282000,-0.0901,0.0925,0.7569,0.768
1.286000,-0.1387,0.0026,1.0001,1.010
1.292000,-0.0992,-0.0714,1.1913,1.198
1.297000,-0.1188,-0.1399,1.0781,1.094
1.303000,-0.2812,-0.1398,0.8765,0.931
1.307000,-0.4280,-0.0613,0.9010,0.999
1.312000,-0.4083,0.1489,1.1125,1.194
1.317000,-0.3037,0.2305,1.3159,1.370
1.321000,-0.2437,0.1908,1.3655,1.400
1.327000,-0.1777,0.2016,1.6645,1.686
1.333000,-0.0642,-0.0595,1.0857,1.089
1.349000,-0.1791,-0.3337,0.3452,0.512
1.351000,-0.4908,-0.4494,0.1745,0.688
1.351000,-0.4451,-0.4779,0.0188,0.653
1.355000,0.3332,0.4271,0.3808,0.662
1.357000,0.1404,0.1070,0.3563,0.398
1.361000,-0.1651,-0.5276,-0.7420,0.925
1.367000,-0.2618,0.3457,-1.1000,1.182
1.373000,0.0174,1.8628,-0.1569,1.869
1.378000,0.6925,1.5737,1.4779,2.267
1.382000,1.5842,1.5533,4.3611,4.893
1.387000,2.2159,1.7505,3.7600,4.702
1.392000,2.0976,1.6424,1.0098,2.849
1.398000,1.4697,1.6873,-0.3040,2.258
1.403000,0.8115,1.8548,-1.0349,2.274
1.408000,0.6208,1.8413,-1.3849,2.386
1.412000,0.8364,1.7136,-1.0019,2.154
1.419000,1.1536,1.5813,-0.1676,1.965
1.423000,1.4399,1.3772,0.5963,2.080
1.428000,1.3936,1.2319,0.9903,2.107
1.433000,1.1792,1.1492,0.9339,1.893
1.451000,0.9833,1.0107,0.4866,1.492
1.452000,0.8169,0.8189,0.1134,1.162
1.453000,0.6644,0.6609,0.0497,0.938
1.455000,0.5854,0.6094,0.3351,0.909
1.459000,0.5989,0.5652,0.4982,0.962
1.463000,0.5625,0.5036,0.6592,1.002
1.481000,0.4936,0.4899,0.7237,1.004
1.482000,0.4144,0.4442,0.5610,0.827
1.483000,0.2504,0.4509,0.2724,0.583
1.484000,0.1270,0.4670,0.2148,0.529
1.495000,0.1750,0.3860,0.2275,0.481
1.496000,0.3646,0.2304,0.2682,0.508
1.499000,0.4846,0.0300,0.2660,0.554
1.507000,0.5478,-0.0316,0.5216,0.757
1.509000,0.6014,-0.0803,0.7972,1.002
1.515000,0.6312,-0.1807,0.8301,1.058
1.520000,0.5387,-0.2039,0.7544,0.949
1.524000,0.2902,-0.0924,0.6030,0.676
1.529000,0.0932,-0.0078,0.5017,0.510
1.534000,-0.0226,0.0989,0.4948,0.505
1.540000,-0.1029,0.1427,0.5453,0.573
1.544000,-0.2051,0.1584,0.6330,0.684
1.549000,-0.2285,0.1540,0.7017,0.754
1.567000,-0.2494,0.1894,0.9273,0.979
1.569000,-0.3062,0.2883,1.2178,1.288
1.569000,-0.3913,0.3166,1.2278,1.327
1.573000,-0.5897,0.3200,1.0215,1.222
1.575000,-0.7733,0.2867,1.0516,1.336
1.579000,-0.8076,0.2649,1.1301,1.414
1.595000,-0.9292,0.2438,1.2685,1.591
1.596000,-1.0650,0.1815,1.4324,1.794
1.597000,-1.0774,0.0066,1.2556,1.654
1.601000,-1.0183,-0.2773,1.0819,1.511
1.610000,-0.9958,-0.4605,1.1721,1.605
1.612000,-1.0201,-0.5625,1.1570,1.642
1.617000,-1.0374,-0.6036,1.1741,1.679
1.624000,-1.0329,-0.6987,1.0626,1.638
1.626000,-1.0177,-0.8405,0.8472,1.568
1.631000,-1.0056,-0.9240,0.7677,1.567
1.638000,-1.0539,-0.9909,0.8873,1.697
1.641000,-1.0119,-0.9935,0.8897,1.674
1.646000,-0.9547,-1.0539,0.8550,1.659
1.651000,-1.0035,-1.0608,1.0305,1.787
1.666000,-1.0566,-0.9606,1.2319,1.886
1.667000,-1.1376,-0.8908,1.2349,1.901
1.667000,-1.2009,-0.9076,1.0201,1.818
1.687000,-1.1341,-0.9978,0.7880,1.704
1.688000,-0.9903,-1.1075,0.7522,1.665
1.689000,-0.7976,-1.1758,0.8237,1.642
1.689000,-0.6923,-1.2374,1.0064,1.739
1.692000,-0.5607,-1.2624,1.0998,1.766
1.696000,-0.4407,-1.2975,1.0832,1.747
1.702000,-0.3466,-1.4156,0.9845,1.759
1.707000,-0.2641,-1.4431,0.8679,1.705
1.711000,-0.1663,-1.4495,0.9754,1.755
1.716000,-0.1364,-1.4467,1.1049,1.825
1.721000,-0.0618,-1.4813,1.1006,1.846
1.727000,0.0113,-1.4565,0.9947,1.764
1.732000,-0.0095,-1.5266,0.8513,1.748
1.738000,-0.0711,-1.5467,0.6441,1.677
1.742000,-0.0647,-1.5278,0.6306,1.654
1.747000,-0.0547,-1.4379,0.7611,1.628
1.754000,-0.0851,-1.3320,0.7618,1.537
1.758000,-0.0756,-1.3216,0.7149,1.504
1.762000,0.0238,-1.4113,0.6107,1.538
1.768000,0.1612,-1.5307,0.3911,1.588
1.787000,0.3044,-1.6450,0.3701,1.713
1.789000,0.4511,-1.7039,0.4754,1.826
1.790000,0.5531,-1.7914,0.5372,1.950
1.814000,0.6368,-1.8761,0.5128,2.047
1.816000,0.6312,-1.9665,0.4214,2.108
1.819000,0.6570,-2.0998,0.2692,2.217
1.823000,0.7207,-2.1672,0.1780,2.291
1.823000,0.8192,-2.2058,0.2780,2.369
1.824000,0.8418,-2.2242,0.2786,2.394
1.825000,0.6998,-2.1543,0.0279,2.265
1.826000,0.5718,-2.1353,-0.0909,2.212
1.828000,0.6027,-2.1349,-0.0625,2.219
1.833000,0.6538,-2.1712,0.0378,2.268
1.845000,0.7632,-2.2250,0.1871,2.360
1.848000,0.8699,-2.2365,0.1669,2.406
1.849000,0.8257,-2.2047,0.1637,2.360
1.856000,0.7314,-2.1750,0.1444,2.299
1.859000,0.6509,-2.1092,0.0279,2.208
1.863000,0.6358,-2.0577,0.0028,2.154
1.868000,0.6096,-2.0588,-0.0166,2.147
1.881000,0.6419,-2.0464,-0.0611,2.146
1.882000,0.6998,-2.0288,-0.0716,2.147
1.885000,0.7561,-2.0047,-0.0156,2.143
1.888000,0.7313,-2.0182,0.0042,2.147
1.904000,0.6782,-2.0298,-0.2012,2.150
1.905000,0.6364,-2.1136,-0.5319,2.270
1.907000,0.6461,-2.2214,-0.6813,2.412
1.909000,0.7671,-2.2899,-0.5195,2.470
1.914000,1.0001,-2.3547,-0.3343,2.580
1.919000,1.1546,-2.3797,-0.2615,2.658
1.923000,1.1822,-2.4162,-0.3174,2.709
1.929000,1.1704,-2.3793,-0.4918,2.697
1.934000,1.1493,-2.2380,-0.5777,2.581
1.941000,1.0358,-2.0332,-0.5967,2.359
1.944000,0.8950,-1.8320,-0.6437,2.138
1.949000,0.7971,-1.6420,-0.6016,1.922
1.954000,0.6776,-1.4070,-0.6363,1.686
1.959000,0.6389,-1.2539,-0.8509,1.645
1.964000,0.5909,-1.1530,-1.1218,1.714
1.969000,0.6446,-1.1448,-0.9582,1.626
1.975000,0.6910,-1.1312,-0.8942,1.599
1.979000,0.7959,-1.1062,-1.0203,1.702
1.985000,0.8006,-1.1224,-1.0619,1.740
1.999000,0.7470,-1.1258,-1.0684,1.723
2.000000,0.6146,-1.0725,-1.1871,1.714
2.001000,0.6122,-1.1167,-1.2857,1.810
2.023000,0.6163,-1.1818,-1.3110,1.870
2.025000,0.7792,-1.2749,-1.2121,1.924
2.026000,0.8066,-1.3183,-1.1569,1.931
2.027000,0.7756,-1.3488,-1.1453,1.932
2.027000,0.8501,-1.4263,-1.1794,2.037
2.031000,0.8368,-1.4405,-1.3362,2.136
2.035000,0.7399,-1.3268,-1.5774,2.190
2.041000,0.6826,-1.2097,-1.6877,2.186
2.046000,0.7156,-1.0806,-1.6024,2.061
2.051000,0.6920,-0.9777,-1.5736,1.978
2.055000,0.6055,-0.7883,-1.6255,1.905
2.061000,0.4129,-0.5879,-1.7181,1.862
2.065000,0.2188,-0.4672,-1.8413,1.912
2.071000,0.0629,-0.4416,-2.0410,2.089
2.075000,0.0322,-0.4642,-2.0933,2.144
2.081000,0.0603,-0.5335,-1.9616,2.034
2.086000,0.0648,-0.6826,-1.9214,2.040
2.091000,-0.0548,-0.8861,-2.0420,2.227
2.095000,-0.0614,-1.2166,-2.2093,2.523
2.101000,0.0008,-1.7563,-2.1551,2.780
2.115000,0.0625,-2.1194,-2.0911,2.978
2.117000,0.0665,-2.1702,-2.1095,3.027
2.118000,0.1267,-1.8807,-1.9050,2.680
2.142000,0.3014,-1.5654,-1.6248,2.276
2.143000,0.4202,-1.3839,-1.5359,2.110
2.144000,0.4863,-1.1668,-1.4596,1.931
2.145000,0.5928,-0.9815,-1.1546,1.627
2.146000,0.6841,-0.7385,-0.8819,1.338
2.147000,0.7791,-0.5900,-0.6354,1.166
2.152000,0.8278,-0.3911,-0.7985,1.215
2.157000,0.9278,-0.2328,-1.1410,1.489
2.163000,1.0491,-0.0840,-1.0578,1.492
2.167000,1.1350,0.1452,-0.7612,1.374
2.174000,1.1761,0.2496,-0.5360,1.316
2.177000,1.1016,0.2271,-0.4716,1.220
2.182000,0.9655,0.2419,-0.6247,1.175
2.200000,0.8995,0.1635,-0.8185,1.227
2.202000,0.8985,0.0734,-0.7069,1.146
2.202000,0.8090,0.0794,-0.5185,0.964
2.203000,0.7047,0.0425,-0.3804,0.802
2.228000,0.6419,-0.1206,-0.2297,0.692
2.229000,0.6803,-0.2377,-0.0794,0.725
2.230000,0.6296,-0.3017,-0.0827,0.703
2.230000,0.5389,-0.2360,0.1378,0.604
2.231000,0.2808,-0.3735,0.3765,0.600
2.232000,0.2183,-0.2681,0.5499,0.650
2.240000,0.2081,-0.2311,0.3850,0.495
2.243000,0.2265,-0.2852,0.4443,0.575
2.248000,0.3138,-0.3170,0.5487,0.707
2.252000,0.3338,-0.1209,0.5880,0.687
2.258000,0.1692,-0.0125,0.5355,0.562
2.263000,0.0835,-0.2610,0.3746,0.464
2.268000,0.1967,-0.4380,0.4158,0.635
2.273000,0.3561,-0.6716,0.3407,0.833
2.278000,0.5824,-0.6451,0.6762,1.101
2.283000,0.8023,-0.7182,0.5013,1.188
2.289000,0.9536,-0.8321,0.2892,1.298
2.293000,0.9909,-0.9631,0.3817,1.434
2.298000,1.0734,-1.1110,0.5862,1.652
2.305000,1.3077,-1.2075,0.7016,1.913
2.309000,1.1337,-0.7147,0.2429,1.362
2.314000,0.6928,-0.1555,0.1263,0.721
2.319000,0.4179,0.2131,-0.1084,0.481
2.336000,0.2168,0.6402,-0.2213,0.711
2.338000,0.2934,1.0540,-0.1417,1.103
2.339000,0.3326,1.2034,-0.2219,1.268
2.342000,0.2886,1.4577,-0.2080,1.501
2.343000,0.1517,1.8816,0.0769,1.889
2.348000,-0.0801,2.2402,0.1082,2.244
2.353000,-0.2442,2.5308,-0.0984,2.544
2.366000,-0.2376,2.6944,-0.0838,2.706
2.368000,-0.2261,2.8064,0.0497,2.816
2.370000,-0.0309,2.9313,0.0459,2.932
2.381000,0.0629,2.9268,-0.0153,2.928
2.382000,0.2151,2.7776,0.1713,2.791
2.384000,0.3044,2.5423,0.1317,2.564
2.393000,0.4957,2.2941,-0.1284,2.351
2.395000,0.6144,2.0437,-0.2832,2.153
2.400000,0.6198,1.8792,-0.2757,1.998
2.406000,0.4440,1.9863,-0.3926,2.073
2.409000,0.4618,1.9888,-0.5951,2.127
2.415000,0.6059,1.8370,-0.6997,2.057
2.420000,0.7544,1.9451,-0.6625,2.189
2.435000,0.7216,2.6204,-0.7501,2.820
2.437000,0.7490,3.0918,-0.4299,3.210
2.439000,0.7939,3.3923,-0.1670,3.488
2.440000,0.5981,3.4823,-0.0551,3.534
2.462000,0.3398,3.3240,-0.1686,3.346
2.463000,0.2490,3.0466,-0.1586,3.061
2.464000,0.2081,2.4686,-0.5664,2.541
2.465000,0.2738,1.8247,-0.7569,1.994
2.466000,0.3272,1.3996,-0.6972,1.597
2.476000,0.3293,1.0842,-0.6774,1.320
2.477000,0.3332,0.6707,-0.7769,1.079
2.481000,0.3926,0.3709,-0.6556,0.849
2.486000,0.3867,0.1751,-0.6504,0.777
2.491000,0.3424,-0.0481,-0.5969,0.690
2.496000,0.2844,-0.2654,-0.5577,0.680
2.501000,0.2281,-0.4312,-0.1693,0.516
2.506000,0.2161,-0.5887,-0.0594,0.630
2.511000,0.1238,-0.6063,-0.2400,0.664
2.516000,-0.0412,-0.6005,0.0570,0.605
2.522000,-0.0801,-0.7984,0.3217,0.865
2.526000,-0.2084,-0.7431,0.2766,0.820
2.531000,0.0221,-0.8213,0.2561,0.861
2.537000,0.1338,-1.1824,0.7226,1.392
2.554000,0.2611,-1.3943,1.0421,1.760
2.556000,0.2113,-1.5865,0.9758,1.874
2.557000,-0.0552,-1.6061,0.2540,1.627
2.558000,-0.0741,-1.7861,0.1370,1.793
2.561000,0.0310,-2.0776,0.2457,2.092
2.566000,-0.0056,-2.4396,0.4199,2.476
2.585000,-0.0406,-2.6319,0.3105,2.650
2.587000,-0.0439,-2.8054,0.4140,2.836
2.588000,-0.2179,-2.6458,0.5913,2.720
2.590000,-0.3323,-2.3805,0.9181,2.573
2.599000,-0.2960,-1.9998,1.3899,2.453
2.601000,-0.6118,-1.4811,1.6480,2.299
2.601000,-1.2240,-0.9651,1.2258,1.983
2.613000,-1.5473,-0.4832,0.9590,1.883
2.614000,-1.7093,0.4300,1.1861,2.124
2.618000,-1.4987,1.4189,1.6882,2.666
2.623000,-1.3489,1.8583,2.0848,3.101
2.627000,-1.3337,2.3388,2.0516,3.385
2.632000,-0.5635,2.6390,2.2159,3.492
2.637000,-0.1710,2.9289,1.8145,3.450
2.650000,0.3037,2.9032,0.8157,3.031
2.652000,0.9072,2.9531,0.2774,3.102
2.653000,1.0556,3.1085,-0.5966,3.337
2.671000,1.3753,2.9604,-1.2216,3.485
2.673000,1.7039,2.5908,-1.3259,3.372
2.674000,1.6032,2.1089,-1.4556,3.023
2.675000,1.2437,1.7815,-1.7193,2.771
2.678000,0.7495,1.6358,-2.3852,2.988
2.683000,0.3306,1.2717,-2.8463,3.135
2.688000,-0.6823,1.4723,-2.2451,2.770
2.693000,-1.8761,1.9617,-1.4104,3.059
2.698000,-2.1627,1.8039,-0.5178,2.864
2.703000,-1.8159,1.4830,-0.1192,2.348
2.708000,-1.4299,1.1636,-0.0974,1.846
2.713000,-1.3134,0.9648,-0.0547,1.631
2.718000,-1.2899,0.7404,-0.0906,1.490
2.723000,-1.2394,0.4031,-0.1284,1.310
2.728000,-1.1827,0.1136,-0.1458,1.197
2.733000,-1.2206,-0.1246,-0.1451,1.235
2.738000,-1.0868,-0.2875,-0.0157,1.124
2.755000,-0.9069,-0.4014,0.1579,1.004
2.756000,-0.7667,-0.4758,0.1999,0.924
2.757000,-0.7169,-0.4894,0.1578,0.882
2.759000,-0.6153,-0.4952,0.1402,0.802
2.763000,-0.4996,-0.4918,0.1313,0.713
2.768000,-0.4494,-0.4125,0.1240,0.622
2.785000,-0.4083,-0.2800,0.1039,0.506
2.787000,-0.3633,-0.1806,0.0041,0.406
2.787000,-0.3537,-0.0746,-0.1632,0.397
2.800000,-0.4041,0.0320,-0.3260,0.520
2.801000,-0.4037,0.1644,-0.4505,0.627
2.802000,-0.3988,0.2462,-0.5007,0.686
2.804000,-0.3968,0.2047,-0.6078,0.754
2.814000,-0.3788,0.2312,-0.4644,0.642
2.815000,-0.3134,0.3140,-0.2726,0.521
2.819000,-0.3213,0.1517,-0.4540,0.577
2.825000,-0.2482,-0.0127,-0.3808,0.455
2.829000,-0.1714,-0.0168,-0.2222,0.281
2.834000,-0.1519,0.0844,0.1719,0.244
2.840000,-0.1775,0.2086,0.4482,0.525
2.845000,-0.1208,0.2470,0.5142,0.583
2.850000,-0.0766,0.1640,0.6701,0.694
2.855000,-0.0492,0.0888,0.7268,0.734
2.871000,-0.0234,-0.0338,0.7142,0.715
2.873000,0.0179,-0.1068,0.7566,0.764
2.874000,0.0650,-0.1698,0.6993,0.723
2.877000,0.1027,-0.2122,0.6129,0.657
2.880000,0.1861,-0.2316,0.5526,0.627
2.885000,0.2089,-0.1838,0.4454,0.525
2.900000,0.2340,-0.1681,0.2847,0.405
2.902000,0.2171,-0.1225,0.1590,0.296
2.902000,0.2513,-0.0840,0.0671,0.273
2.916000,0.2435,-0.0382,0.0195,0.247
2.918000,0.2268,0.0303,0.1011,0.250
2.918000,0.3139,0.0501,0.0613,0.324
2.921000,0.3709,0.0712,-0.0174,0.378
2.931000,0.4631,0.0506,-0.0788,0.472
2.932000,0.4443,0.0707,-0.0669,0.455
2.935000,0.4588,0.0825,-0.0548,0.469
2.942000,0.5054,0.0380,-0.0866,0.514
2.947000,0.5225,-0.0400,-0.1029,0.534
2.951000,0.5028,-0.0848,-0.1065,0.521
2.957000,0.5206,-0.0893,-0.0485,0.530
2.965000,0.4777,-0.0570,0.0138,0.481
2.965000,0.4516,-0.0812,0.0658,0.464
2.971000,0.4410,-0.1510,0.1547,0.491
2.985000,0.4281,-0.1790,0.1515,0.488
2.986000,0.4318,-0.2155,0.1195,0.497
2.987000,0.4366,-0.2426,0.1234,0.515
3.011000,0.4701,-0.2125,0.1199,0.530
3.012000,0.4327,-0.1767,0.0577,0.471
3.013000,0.4369,-0.1554,0.0397,0.465
3.013000,0.4331,-0.0649,-0.0121,0.438
3.014000,0.4534,-0.0032,-0.0877,0.462
3.016000,0.4691,0.0093,-0.1083,0.482
3.021000,0.4716,0.0302,-0.1301,0.490
3.026000,0.4489,0.0104,-0.2011,0.492
3.031000,0.4403,0.0097,-0.2267,0.495
3.036000,0.4840,-0.0017,-0.2240,0.533
3.041000,0.5478,-0.0323,-0.1798,0.577
3.047000,0.5687,-0.0354,-0.1540,0.590
3.051000,0.5189,-0.0517,-0.0040,0.522
3.074000,0.4405,-0.1074,0.1184,0.469
3.075000,0.4738,-0.1737,0.0776,0.511
3.076000,0.5736,-0.1359,-0.0605,0.593
3.077000,0.6037,-0.1221,-0.0824,0.621
3.082000,0.6086,-0.1074,-0.1509,0.636
3.082000,0.6017,-0.1122,-0.2029,0.645
3.087000,0.6151,-0.1376,-0.1690,0.653
3.098000,0.5627,-0.1561,-0.0940,0.591
3.099000,0.5196,-0.0948,-0.0540,0.531
3.102000,0.4666,-0.1293,-0.0381,0.486
3.111000,0.3928,-0.1221,0.0050,0.411
3.112000,0.3277,-0.1449,0.0026,0.358
3.117000,0.2868,-0.1426,0.0659,0.327
3.131000,0.2138,-0.1116,0.1017,0.262
3.133000,0.1778,-0.0542,0.1592,0.245
3.133000,0.1096,-0.0100,0.1786,0.210
3.137000,0.1048,-0.0136,0.2091,0.234
3.142000,0.0595,0.0510,0.2078,0.222
3.148000,0.0275,0.0559,0.2548,0.262
3.153000,0.0279,0.0824,0.2449,0.260
3.157000,0.0309,0.1401,0.2739,0.309
3.163000,0.0199,0.1726,0.2663,0.318
3.168000,0.0332,0.2135,0.2628,0.340
3.174000,0.0336,0.1983,0.2587,0.328
3.178000,0.0188,0.1711,0.2334,0.290
3.183000,0.0424,0.1690,0.2106,0.273
3.188000,0.0530,0.1562,0.1375,0.215
3.203000,0.0385,0.1229,0.0881,0.156
3.205000,0.0516,0.0992,0.0324,0.116
3.205000,0.0503,0.0874,-0.0320,0.106
3.232000,0.0358,0.0396,-0.0512,0.074
3.233000,0.0105,-0.0141,-0.0684,0.071
3.234000,-0.0065,-0.0559,-0.0787,0.097
3.235000,-0.0248,-0.0845,-0.1287,0.156
3.235000,-0.0444,-0.1155,-0.1406,0.187
3.236000,-0.0641,-0.1535,-0.2099,0.268
3.239000,-0.1140,-0.1281,-0.2096,0.271
3.246000,-0.0936,-0.1457,-0.2008,0.265
3.249000,-0.0748,-0.1894,-0.1918,0.280
3.254000,-0.0827,-0.2270,-0.1192,0.269
3.259000,-0.1136,-0.1975,-0.0202,0.229
3.264000,-0.1007,-0.2360,0.0645,0.265
3.269000,-0.0237,-0.2923,0.1373,0.324
3.276000,0.0612,-0.3126,0.1563,0.355
3.279000,0.0811,-0.3555,0.1619,0.399
3.284000,0.1366,-0.4175,0.1519,0.465
3.289000,0.1885,-0.4424,0.1129,0.494
3.305000,0.2044,-0.4435,0.0736,0.494
3.307000,0.2024,-0.4123,0.0413,0.461
3.308000,0.2112,-0.3776,-0.0510,0.436
3.312000,0.2358,-0.3874,-0.1364,0.474
3.315000,0.2284,-0.3638,-0.1790,0.465
3.319000,0.1879,-0.3213,-0.2604,0.454
3.335000,0.1967,-0.2622,-0.2452,0.409
3.336000,0.2176,-0.2475,-0.2208,0.397
3.337000,0.1945,-0.2521,-0.2314,0.394
3.348000,0.1895,-0.3010,-0.2290,0.423
3.350000,0.1740,-0.3009,-0.2436,0.424
3.350000,0.1399,-0.3464,-0.2155,0.431
3.355000,0.1158,-0.3274,-0.2034,0.402
3.361000,0.0834,-0.3205,-0.1880,0.381
3.365000,0.0487,-0.3078,-0.1874,0.364
3.369000,0.0463,-0.2843,-0.1753,0.337
3.375000,0.0091,-0.2824,-0.1648,0.327
3.381000,0.0029,-0.2484,-0.2000,0.319
3.385000,-0.0129,-0.1414,-0.1878,0.235
3.403000,-0.0766,-0.0980,-0.1840,0.222
3.404000,-0.1393,-0.0713,-0.2125,0.264
3.405000,-0.2273,0.0044,-0.1659,0.281
3.429000,-0.2785,0.1184,-0.0988,0.318
3.430000,-0.3358,0.1558,-0.0505,0.374
3.431000,-0.4148,0.1874,0.0077,0.455
3.432000,-0.5080,0.2155,0.0364,0.553
3.432000,-0.5558,0.2305,0.0455,0.603
3.433000,-0.6120,0.2002,-0.0010,0.644
3.436000,-0.6693,0.1366,0.0225,0.684
3.443000,-0.6816,0.0948,-0.0338,0.689
3.446000,-0.6534,0.0173,-0.0562,0.656
3.451000,-0.6497,0.0010,-0.0436,0.651
3.456000,-0.6036,-0.0378,-0.0283,0.605
3.461000,-0.5475,-0.0668,-0.0715,0.556
3.466000,-0.4778,-0.0574,-0.1002,0.492
3.472000,-0.3924,-0.0981,-0.0666,0.410
3.476000,-0.3127,-0.1098,-0.1130,0.350
3.482000,-0.2432,-0.1261,-0.0492,0.278
3.487000,-0.1746,-0.1255,-0.0251,0.217
3.492000,-0.1078,-0.1451,-0.0032,0.181
3.497000,-0.0510,-0.1539,0.0844,0.183
3.502000,-0.0137,-0.1171,0.0824,0.144
3.508000,0.0351,-0.1113,0.1009,0.154
3.512000,0.0669,-0.0864,0.1793,0.210
3.517000,0.0809,-0.0686,0.2255,0.249
3.522000,0.1309,-0.0759,0.2433,0.287
3.539000,0.1226,-0.0592,0.2328,0.270
3.540000,0.1421,-0.0211,0.2178,0.261
3.541000,0.1454,0.0038,0.1769,0.229
3.543000,0.1441,0.0311,0.1481,0.209
3.547000,0.1791,0.0714,0.0958,0.215
3.552000,0.1681,0.0961,0.1215,0.229
3.569000,0.1516,0.1410,0.1266,0.243
3.570000,0.1440,0.2371,0.1592,0.320
3.571000,0.1190,0.2517,0.1941,0.339
3.573000,0.0954,0.2530,0.1272,0.299
3.585000,0.0652,0.2674,0.1020,0.293
3.586000,0.0904,0.2839,0.0775,0.308
3.589000,0.0620,0.2954,0.0798,0.312
3.600000,0.0288,0.2555,0.1052,0.278
3.601000,0.0078,0.2572,0.1298,0.288
3.603000,-0.0382,0.2301,0.1550,0.280
3.611000,-0.0421,0.2125,0.1822,0.283
3.613000,-0.0746,0.1721,0.2437,0.307
3.618000,-0.0544,0.1401,0.2238,0.270
3.623000,-0.0808,0.0664,0.2256,0.249
3.638000,-0.0794,0.0334,0.2409,0.256
3.639000,-0.0922,0.0041,0.2711,0.286
3.640000,-0.0665,-0.0335,0.2480,0.259
3.661000,-0.0454,-0.0781,0.1919,0.212
3.662000,-0.0337,-0.1000,0.1518,0.185
3.663000,0.0188,-0.1504,0.1663,0.225
3.663000,-0.0135,-0.1613,0.1010,0.191
3.664000,-0.0072,-0.1650,0.0669,0.178
3.669000,0.0516,-0.1937,0.0319,0.203
3.676000,0.0722,-0.1651,0.0520,0.188
3.680000,0.0786,-0.1581,0.0372,0.180
3.683000,0.0956,-0.1200,0.0390,0.158
3.689000,0.0818,-0.1048,0.0656,0.148
3.694000,0.0970,-0.1220,0.0754,0.173
3.699000,0.0743,-0.0854,0.0743,0.135
3.704000,0.0424,-0.0214,0.0696,0.084
3.710000,0.0358,0.0341,0.0925,0.105
3.714000,0.0365,0.0465,0.0988,0.115
3.719000,0.0027,0.0357,0.0555,0.066
3.736000,-0.0010,0.0678,0.0197,0.071
3.736000,-0.0056,0.1198,0.0328,0.124
3.737000,-0.0436,0.1191,0.0327,0.131
3.739000,-0.0348,0.0899,0.0469,0.107
3.756000,-0.0413,0.1297,0.0611,0.149
3.758000,-0.0739,0.1658,0.0468,0.187
3.758000,-0.0646,0.1480,0.0874,0.184
3.760000,-0.0481,0.1270,0.0378,0.141
3.764000,-0.0710,0.1274,0.0076,0.146
3.770000,-0.0995,0.1303,-0.0212,0.165
3.775000,-0.0718,0.1247,-0.0809,0.165
3.780000,-0.0813,0.1464,-0.0108,0.168
3.785000,-0.0826,0.0885,0.0278,0.124
3.790000,-0.0863,0.0964,0.0675,0.146
3.795000,-0.0676,0.0842,0.0623,0.125
3.800000,-0.0574,0.0614,0.0347,0.091
3.805000,-0.0331,0.0223,0.0241,0.047
3.811000,0.0123,0.0143,-0.0208,0.028
3.815000,0.0256,-0.0126,-0.0276,0.040
3.821000,0.0293,-0.0276,-0.0380,0.055
3.840000,0.0510,0.0051,0.0239,0.057
3.841000,0.0393,-0.0386,0.0247,0.060
3.842000,0.0396,-0.0629,0.0206,0.077
3.842000,0.0366,-0.0752,0.0567,0.101
3.846000,0.0373,-0.0553,0.0119,0.068
3.851000,0.0048,-0.0855,-0.0018,0.086
3.857000,-0.0166,-0.0301,-0.0119,0.036
3.869000,-0.0308,0.0119,0.0127,0.035
3.870000,-0.0615,0.0073,0.0168,0.064
3.872000,-0.0552,-0.0199,0.0184,0.062
3.883000,-0.0598,-0.0017,0.0318,0.068
3.884000,-0.1048,0.0318,0.0513,0.121
3.887000,-0.0949,0.0603,0.0529,0.124
3.896000,-0.0732,0.0423,0.1176,0.145
3.898000,-0.1030,0.0222,0.1105,0.153
3.901000,-0.0589,0.0366,0.0751,0.102
3.906000,-0.0425,0.0344,0.0697,0.089
3.912000,-0.0324,0.0239,0.0671,0.078
3.917000,-0.0318,0.0147,0.0562,0.066
3.922000,-0.0170,0.0044,0.0550,0.058
3.927000,-0.0331,0.0833,0.0244,0.093
3.932000,-0.0504,0.0761,-0.0141,0.092
3.937000,-0.0282,0.0701,-0.0569,0.095
3.943000,-0.0583,0.1117,-0.0469,0.134
3.947000,-0.0825,0.1150,-0.0142,0.142
3.952000,-0.0995,0.1421,-0.0515,0.181
3.957000,-0.1188,0.1572,-0.0135,0.197
3.974000,-0.1251,0.1413,0.0305,0.191
3.975000,-0.1316,0.1139,0.1316,0.218
3.976000,-0.1381,0.0796,0.1668,0.231
3.977000,-0.1495,0.0564,0.1711,0.234
3.982000,-0.1254,-0.0105,0.1864,0.225
3.988000,-0.1206,-0.0648,0.2529,0.288
4.004000,-0.1146,-0.1009,0.2479,0.291
4.005000,-0.1503,-0.1390,0.2539,0.326
4.006000,-0.1846,-0.1173,0.2555,0.336
4.017000,-0.1370,-0.1467,0.2017,0.285
4.018000,-0.1196,-0.1022,0.1369,0.209
4.019000,-0.0515,-0.0828,0.0437,0.107
4.023000,0.0050,-0.0920,-0.0093,0.093
4.030000,0.0466,-0.0856,-0.1066,0.144
4.033000,0.0984,-0.0447,-0.1565,0.190
4.038000,0.1234,-0.0634,-0.2570,0.292
4.043000,0.1670,-0.0428,-0.2747,0.324
4.049000,0.2208,-0.0876,-0.2982,0.381
4.054000,0.2385,-0.1463,-0.3277,0.431
4.072000,0.2180,-0.1832,-0.2848,0.403
4.073000,0.2489,-0.2246,-0.2853,0.440
4.074000,0.2395,-0.2159,-0.2507,0.408
4.074000,0.2277,-0.2394,-0.2036,0.388
4.099000,0.2072,-0.3005,-0.1975,0.415
4.100000,0.1615,-0.2863,-0.1631,0.367
4.100000,0.1544,-0.2888,-0.1435,0.358
4.101000,0.1126,-0.2699,-0.1862,0.347
4.101000,0.0802,-0.2236,-0.1959,0.308
4.104000,0.0595,-0.1905,-0.2096,0.289
4.111000,0.0492,-0.1753,-0.2116,0.279
4.114000,0.0530,-0.1279,-0.2165,0.257
4.119000,0.0480,-0.0769,-0.2265,0.244
4.125000,0.0202,-0.0225,-0.1700,0.173
4.129000,-0.0256,-0.0112,-0.1913,0.193
4.134000,-0.0118,0.0599,-0.2104,0.219
4.139000,-0.0577,0.0807,-0.1687,0.196
4.145000,-0.0758,0.1001,-0.1450,0.192
4.150000,-0.1044,0.1267,-0.1260,0.207
4.155000,-0.1399,0.1473,-0.1381,0.246
4.171000,-0.1845,0.1008,-0.1416,0.253
4.172000,-0.2035,0.0973,-0.1057,0.249
4.173000,-0.2225,0.1046,-0.1427,0.284
4.174000,-0.2713,0.0604,-0.1212,0.303
4.192000,-0.2819,0.0187,-0.1093,0.303
4.193000,-0.2556,0.0058,-0.1106,0.279
4.194000,-0.2414,-0.0202,-0.1178,0.269
4.196000,-0.2237,0.0077,-0.0797,0.238
4.200000,-0.2123,-0.0208,-0.0717,0.225
4.205000,-0.2081,-0.0455,-0.0482,0.218
4.211000,-0.1921,0.0051,-0.0257,0.194
4.215000,-0.1774,-0.0626,-0.0106,0.188
4.221000,-0.1676,-0.0275,-0.0180,0.171
4.227000,-0.1423,-0.0150,0.0095,0.143
4.230000,-0.1016,-0.0384,-0.0085,0.109
4.236000,-0.0633,-0.0079,0.0300,0.070
4.241000,-0.0585,-0.0193,0.0076,0.062
4.247000,-0.0272,-0.0151,-0.0552,0.063
4.251000,-0.0079,-0.0074,-0.0308,0.033
4.256000,0.0018,0.0002,-0.0161,0.016
4.274000,0.0340,-0.0006,-0.0705,0.078
4.276000,0.0232,-0.0168,-0.0342,0.045
4.277000,0.0339,0.0016,-0.0160,0.038
4.277000,-0.0376,-0.0586,0.0352,0.078
4.281000,-0.0601,-0.0006,0.0360,0.070
4.286000,0.0323,0.0130,-0.0260,0.043
4.291000,0.0847,0.0076,0.0241,0.088
4.304000,0.0882,-0.0086,0.0595,0.107
4.305000,0.1039,-0.0056,0.0734,0.127
4.307000,0.1231,-0.0478,0.0480,0.141
4.319000,0.0948,-0.0885,0.0515,0.140
4.320000,0.0931,-0.1419,0.0418,0.175
4.322000,0.0890,-0.1486,0.0121,0.174
4.327000,0.0934,-0.1422,0.0157,0.171
4.334000,0.0799,-0.1514,0.0725,0.186
4.337000,0.0938,-0.1914,0.0527,0.220
4.345000,0.0804,-0.1824,0.0482,0.205
4.347000,0.1121,-0.1770,0.0687,0.220
4.352000,0.0795,-0.1681,0.0555,0.194
4.357000,0.0495,-0.1535,0.0363,0.165
4.363000,0.0600,-0.1057,0.0529,0.133
4.367000,0.0751,-0.0915,0.0561,0.131
4.372000,0.0698,-0.0739,0.0188,0.103
4.397000,0.0621,-0.0446,0.0173,0.078
4.398000,0.0569,-0.0642,0.0133,0.087
4.399000,0.0896,-0.0564,0.0152,0.107
4.399000,0.0818,-0.0379,0.0267,0.094
4.400000,0.0954,-0.0314,0.0418,0.109
4.406000,0.1126,-0.0001,-0.0038,0.113
4.407000,0.0811,-0.0236,0.0070,0.085
4.427000,0.0890,-0.0054,-0.0070,0.089
4.428000,0.0639,0.0043,-0.0183,0.067
4.428000,0.0818,0.0271,-0.0401,0.095
4.429000,0.0698,-0.0061,-0.0212,0.073
4.433000,0.0341,-0.0248,0.0117,0.044
4.438000,0.0367,-0.0089,-0.0530,0.065
4.449000,0.0453,0.0045,-0.0436,0.063
4.450000,0.0502,-0.0310,-0.0558,0.081
4.453000,0.0444,-0.0056,-0.0478,0.066
4.458000,0.0600,0.0469,-0.0138,0.077
4.463000,0.0507,0.0206,-0.0062,0.055
4.469000,0.0664,0.0229,-0.0474,0.085
4.473000,0.0620,0.0359,0.0116,0.073
4.487000,0.0636,0.0120,0.0273,0.070
4.489000,0.0262,0.0132,0.0168,0.034
4.489000,0.0390,0.0274,0.0172,0.051
4.510000,0.0303,-0.0059,0.0235,0.039
4.511000,0.0302,0.0037,0.0214,0.037
4.513000,-0.0055,-0.0058,0.0467,0.047
4.513000,0.0209,-0.0152,0.0339,0.043
4.514000,0.0221,-0.0245,0.0378,0.050
4.519000,0.0364,-0.0420,0.0287,0.063
4.524000,0.0446,-0.0357,0.0386,0.069
4.529000,0.0433,-0.0199,0.0665,0.082
4.534000,0.0955,-0.0030,0.0859,0.128
4.539000,0.0843,-0.0337,0.0458,0.102
4.544000,0.0743,0.0023,0.0098,0.075
4.549000,0.0608,0.0144,-0.0164,0.065
4.554000,0.0557,-0.0058,-0.0139,0.058
4.561000,0.0817,-0.0174,-0.0196,0.086
4.565000,0.1228,-0.0076,-0.0444,0.131
4.570000,0.1018,-0.0015,-0.0606,0.119
4.575000,0.1642,-0.0536,-0.0435,0.178
4.580000,0.1288,-0.0412,0.0019,0.135
4.585000,0.1425,-0.0514,-0.0017,0.152
4.590000,0.1645,-0.0557,-0.0197,0.175
4.608000,0.1436,-0.0421,-0.0423,0.156
4.609000,0.1599,-0.0537,-0.0671,0.181
4.610000,0.1274,-0.0307,-0.0420,0.138
4.612000,0.1131,-0.0377,-0.0290,0.123
4.615000,0.1499,-0.0375,-0.0317,0.158
4.620000,0.1247,-0.0302,-0.0333,0.133
4.625000,0.0974,-0.0336,-0.0456,0.113
4.638000,0.0621,0.0068,-0.0367,0.072
4.639000,0.0472,0.0089,-0.0421,0.064
4.641000,0.0420,0.0062,-0.0608,0.074
4.653000,0.0189,0.0238,-0.0639,0.071
4.654000,0.0173,0.0162,-0.0541,0.059
4.656000,0.0325,-0.0021,-0.0565,0.065
4.667000,0.0263,0.0320,-0.0495,0.065
4.669000,-0.0082,0.0136,-0.0474,0.050
4.671000,-0.0127,0.0344,-0.0205,0.042
4.676000,-0.0122,0.0740,0.0216,0.078
4.681000,-0.0495,0.0574,0.0551,0.094
4.687000,-0.0676,0.0292,0.1218,0.142
4.692000,-0.0568,0.0059,0.1312,0.143
4.706000,-0.0484,0.0185,0.1657,0.174
4.707000,-0.0553,0.0488,0.1753,0.190
4.708000,-0.0609,-0.0055,0.1660,0.177
4.732000,-0.0557,-0.0189,0.1642,0.174
4.733000,-0.0303,-0.0036,0.0996,0.104
4.734000,-0.0563,-0.0431,0.0642,0.096
4.735000,-0.0605,-0.0466,0.0519,0.092
4.736000,-0.0374,-0.0193,0.0171,0.045
4.736000,-0.0253,-0.0182,-0.0493,0.058
4.742000,-0.0321,-0.0254,-0.0485,0.063
4.746000,-0.0295,-0.0243,-0.0383,0.054
4.751000,0.0041,0.0303,-0.0542,0.062
4.757000,0.0148,0.0166,-0.0879,0.091
4.762000,0.0337,-0.0337,-0.1108,0.121
4.767000,0.0738,-0.0978,-0.0828,0.148
4.772000,0.0887,-0.0903,-0.0363,0.132
4.778000,0.0798,-0.1055,0.0213,0.134
4.782000,0.0638,-0.1134,0.0461,0.138
4.787000,0.0647,-0.1048,0.1015,0.160
4.792000,0.0526,-0.1010,0.0873,0.143
4.798000,-0.0166,-0.1090,0.0933,0.144
4.802000,0.0121,-0.0909,0.1277,0.157
4.807000,0.0154,-0.0705,0.0930,0.118
4.826000,0.0222,-0.0669,0.1190,0.138
4.828000,0.0370,0.0293,0.0631,0.079
4.829000,0.0302,0.0049,0.0741,0.080
4.830000,0.0446,-0.0086,0.0484,0.066
4.832000,0.0267,0.0089,0.0277,0.039
4.837000,0.0409,0.0323,0.0288,0.060
4.843000,0.0905,0.0117,0.0326,0.097
4.858000,0.0484,0.0400,-0.0156,0.065
4.858000,0.0790,0.0632,-0.0287,0.105
4.859000,0.0690,0.0246,-0.0405,0.084
4.870000,0.0414,0.0254,-0.0784,0.092
4.871000,0.0783,0.0119,-0.1089,0.135
4.873000,0.0782,0.0199,-0.1131,0.139
4.882000,0.0864,-0.0090,-0.0308,0.092
4.885000,0.0697,-0.0010,-0.0598,0.092
4.888000,0.0425,-0.0310,-0.0470,0.071
4.895000,0.0345,-0.0501,0.0011,0.061
4.899000,0.0182,-0.0631,-0.0083,0.066
4.903000,0.0211,-0.0677,0.0524,0.088
4.909000,0.0182,-0.0865,0.0722,0.114
4.914000,0.0141,-0.0672,0.1003,0.122
4.919000,-0.0054,-0.0492,0.1234,0.133
4.924000,-0.0284,-0.0373,0.0978,0.108
4.940000,-0.0037,-0.0254,0.0881,0.092
4.941000,0.0054,-0.0267,0.0976,0.101
4.941000,0.0214,-0.0267,0.0750,0.082
4.961000,0.0135,-0.0078,0.0659,0.068
4.962000,0.0376,-0.0019,0.0356,0.052
4.963000,0.0235,-0.0068,-0.0479,0.054
4.963000,0.0143,0.0097,-0.0251,0.030
4.964000,0.0572,-0.0250,-0.0167,0.065
4.969000,0.0296,0.0143,-0.0513,0.061
4.974000,0.0498,0.0187,-0.0654,0.084
4.979000,0.0604,-0.0185,-0.0725,0.096
4.985000,0.0246,0.0076,-0.0775,0.082
4.989000,0.0379,0.0025,-0.0633,0.074
4.996000,0.0654,-0.0168,-0.0647,0.093
5.000000,0.0428,-0.0051,-0.0150,0.046
5.005000,0.0134,-0.0196,-0.0096,0.026
5.010000,0.0234,-0.0268,-0.0074,0.036
5.015000,0.0275,0.0242,0.0220,0.043
5.020000,-0.0124,0.0214,-0.0081,0.026
5.024000,0.0086,-0.0301,-0.0141,0.034
5.041000,-0.0003,-0.0586,0.0001,0.059
5.042000,0.0336,-0.0761,0.0237,0.086
5.043000,0.0209,-0.0389,0.0198,0.048
5.072000,0.0118,-0.0566,0.0385,0.069
5.073000,0.0242,-0.0266,0.0249,0.044
5.074000,0.0259,-0.0338,-0.0015,0.043
5.075000,0.0075,-0.0279,-0.0207,0.036
5.076000,0.0225,-0.0208,-0.0125,0.033
5.076000,0.0078,-0.0173,-0.0174,0.026
5.077000,-0.0059,0.0134,-0.0425,0.045
5.087000,0.0139,-0.0036,-0.0308,0.034
5.088000,0.0346,0.0163,-0.0466,0.060
5.091000,0.0123,0.0183,-0.0433,0.049
5.101000,-0.0123,0.0214,-0.0660,0.071
5.102000,0.0227,0.0103,-0.0507,0.056
5.105000,0.0195,0.0052,-0.0676,0.071
5.111000,0.0093,0.0036,-0.0536,0.055
5.116000,0.0157,-0.0181,-0.0540,0.059
5.121000,0.0102,-0.0123,-0.0566,0.059
5.126000,0.0049,-0.0078,-0.0533,0.054
5.142000,0.0080,-0.0069,-0.0548,0.056
5.143000,-0.0116,-0.0428,-0.0362,0.057
5.144000,-0.0083,-0.0321,-0.0416,0.053
5.170000,-0.0075,-0.0227,-0.0102,0.026
5.172000,-0.0387,-0.0324,-0.0349,0.061
5.172000,-0.0089,-0.0112,-0.0285,0.032
5.173000,0.0016,0.0027,-0.0327,0.033
5.173000,-0.0165,0.0106,-0.0344,0.040
5.174000,-0.0143,0.0113,-0.0076,0.020
5.176000,0.0046,0.0203,-0.0296,0.036
5.184000,0.0079,-0.0075,-0.0276,0.030
5.187000,-0.0268,-0.0209,-0.0161,0.038
5.192000,-0.0114,0.0098,-0.0189,0.024
5.197000,0.0263,0.0165,-0.0324,0.045
5.202000,0.0021,-0.0231,-0.0661,0.070
5.207000,0.0196,0.0016,-0.0342,0.039
5.213000,0.0321,0.0143,-0.0381,0.052
5.216000,0.0195,0.0008,-0.0397,0.044
5.222000,-0.0012,-0.0233,-0.0177,0.029
5.227000,0.0021,-0.0164,0.0017,0.017
5.232000,0.0004,-0.0035,0.0033,0.005
5.237000,-0.0083,-0.0181,0.0107,0.023
5.242000,0.0184,-0.0135,0.0013,0.023
5.261000,0.0188,0.0029,-0.0066,0.020
5.262000,-0.0010,-0.0093,0.0130,0.016
5.263000,0.0091,-0.0321,-0.0259,0.042
5.263000,0.0155,0.0225,-0.0323,0.042
5.268000,0.0194,-0.0100,-0.0269,0.035
5.273000,-0.0063,-0.0316,-0.0179,0.037
5.290000,-0.0222,-0.0162,-0.0398,0.048
5.292000,-0.0154,-0.0152,-0.0273,0.035
5.292000,-0.0110,-0.0214,-0.0363,0.044
5.293000,0.0029,-0.0370,-0.0179,0.041
5.305000,-0.0034,-0.0027,-0.0318,0.032
5.306000,-0.0086,0.0373,-0.0240,0.045
5.308000,-0.0184,0.0165,0.0147,0.029
5.319000,0.0065,-0.0006,0.0151,0.016
5.321000,-0.0164,0.0097,0.0180,0.026
5.324000,0.0155,-0.0156,0.0233,0.032
5.330000,0.0164,0.0103,0.0002,0.019
5.334000,0.0089,-0.0245,0.0022,0.026
5.338000,0.0217,-0.0033,0.0103,0.024
5.344000,0.0331,0.0214,-0.0386,0.055
5.349000,0.0147,0.0079,-0.0562,0.059
5.354000,0.0214,0.0123,-0.0655,0.070
5.358000,-0.0087,0.0096,-0.0199,0.024
5.378000,0.0004,-0.0311,-0.0625,0.070
5.379000,0.0262,0.0128,-0.0655,0.072
5.380000,-0.0017,0.0279,-0.0877,0.092
5.381000,-0.0187,0.0037,-0.0633,0.066
5.384000,-0.0202,0.0224,-0.0831,0.088
5.388000,-0.0085,0.0338,-0.1147,0.120
5.394000,-0.0019,0.0535,-0.0618,0.082
5.408000,-0.0368,0.0433,-0.0081,0.057
5.410000,-0.0348,0.0344,0.0168,0.052
5.410000,-0.0231,-0.0159,0.0595,0.066
5.422000,-0.0199,-0.0373,0.0854,0.095
5.423000,-0.0321,-0.0205,0.0922,0.100
5.424000,-0.0275,-0.0311,0.1029,0.111
5.435000,-0.0159,-0.0511,0.0947,0.109
5.436000,-0.0567,-0.0317,0.0772,0.101
5.440000,-0.0201,-0.0065,0.0516,0.056
5.445000,0.0138,-0.0313,0.0086,0.035
5.450000,0.0010,-0.0321,-0.0032,0.032
5.455000,-0.0188,-0.0508,-0.0172,0.057
5.460000,-0.0396,-0.0052,-0.0239,0.047
5.477000,-0.0175,-0.0027,-0.0282,0.033
5.479000,-0.0465,0.0248,-0.0572,0.078
5.480000,-0.0397,0.0199,-0.0980,0.108
5.483000,-0.0402,-0.0039,-0.0898,0.098
5.485000,-0.0276,-0.0502,-0.0843,0.102
5.490000,0.0051,-0.0663,-0.0684,0.095
5.508000,0.0209,-0.0872,-0.0303,0.095
5.510000,0.0046,-0.0735,0.0309,0.080
5.511000,0.0076,-0.1288,0.0488,0.138
5.512000,0.0129,-0.1279,0.0343,0.133
5.522000,-0.0198,-0.1021,0.0424,0.112
5.523000,-0.0414,-0.0932,0.0635,0.120
5.526000,-0.0449,-0.0772,0.0653,0.111
5.535000,-0.0274,-0.0672,0.0411,0.083
5.536000,-0.0504,-0.0371,0.0244,0.067
5.541000,-0.0508,-0.0072,-0.0003,0.051
5.547000,-0.0218,0.0059,-0.0187,0.029
5.551000,-0.0561,0.0523,-0.0214,0.080
5.556000,-0.0105,0.0139,-0.0571,0.060
5.561000,-0.0176,0.0151,-0.0687,0.072
5.566000,-0.0044,0.0187,-0.0586,0.062
5.571000,0.0170,0.0495,-0.0820,0.097
5.576000,0.0417,0.0504,-0.1397,0.154
5.594000,0.0130,0.0132,-0.1376,0.139
5.596000,0.0142,0.0215,-0.1213,0.124
5.596000,0.0095,0.0712,-0.1218,0.141
5.597000,0.0108,0.0184,-0.0915,0.094
5.601000,0.0096,0.0005,-0.0511,0.052
5.606000,-0.0106,0.0135,-0.0395,0.043
5.612000,-0.0034,0.0122,-0.0268,0.030
5.625000,-0.0200,-0.0068,0.0097,0.023
5.627000,-0.0163,-0.0031,0.0353,0.039
5.627000,-0.0482,-0.0030,0.0155,0.051
5.640000,-0.0311,-0.0314,0.0363,0.057
5.641000,-0.0499,-0.0050,0.0286,0.058
5.641000,-0.0578,-0.0250,0.0234,0.067
5.653000,-0.0526,0.0038,-0.0113,0.054
5.654000,-0.0486,-0.0044,-0.0124,0.050
5.657000,-0.0269,0.0112,-0.0361,0.046
5.662000,-0.0172,-0.0077,-0.0299,0.035
5.668000,-0.0338,-0.0123,-0.0477,0.060
5.672000,-0.0110,0.0021,-0.0726,0.073
5.677000,-0.0062,0.0034,-0.0782,0.078
5.704000,-0.0192,-0.0120,-0.0993,0.102
5.705000,-0.0285,-0.0617,-0.0894,0.112
5.706000,0.0157,0.0291,-0.0977,0.103
5.707000,0.0322,0.0122,-0.1143,0.119
5.707000,0.0214,-0.0259,-0.0787,0.086
5.715000,0.0155,-0.0305,-0.0530,0.063
5.716000,-0.0022,-0.0387,-0.0109,0.040
5.717000,0.0006,-0.0124,0.0012,0.012
5.723000,-0.0061,-0.0397,-0.0082,0.041
5.728000,-0.0163,0.0068,0.0221,0.028
5.737000,-0.0514,0.0056,-0.0002,0.052
5.738000,0.0077,0.0031,-0.0020,0.008
5.743000,-0.0383,-0.0433,0.0033,0.058
5.764000,-0.0495,-0.0442,0.0002,0.066
5.765000,-0.0264,-0.0664,-0.0124,0.072
5.765000,-0.0366,-0.0682,0.0096,0.078
5.766000,-0.0278,-0.0558,0.0254,0.067
5.769000,-0.0274,-0.0328,0.0269,0.051
5.774000,-0.0149,-0.0207,0.0415,0.049
5.779000,-0.0310,-0.0063,-0.0045,0.032
5.783000,-0.0243,-0.0028,-0.0039,0.025
5.789000,-0.0272,0.0078,0.0155,0.032
5.794000,-0.0135,0.0100,-0.0248,0.030
5.813000,-0.0379,-0.0210,-0.0267,0.051
5.814000,-0.0313,0.0004,-0.0287,0.042
5.815000,-0.0319,-0.0139,-0.0188,0.040
5.817000,-0.0182,-0.0020,-0.0387,0.043
5.819000,0.0000,-0.0164,-0.0085,0.018
5.824000,-0.0222,-0.0211,-0.0308,0.043
5.842000,-0.0276,-0.0459,-0.0304,0.062
5.844000,-0.0139,-0.0017,-0.0382,0.041
5.845000,-0.0252,-0.0137,-0.0329,0.044
5.845000,-0.0163,-0.0339,-0.0347,0.051
5.856000,-0.0098,-0.0135,-0.0070,0.018
5.857000,-0.0201,-0.0539,-0.0140,0.059
5.859000,-0.0052,-0.0500,-0.0246,0.056
5.869000,-0.0238,-0.0189,-0.0019,0.030
5.870000,-0.0220,-0.0141,-0.0006,0.026
5.875000,-0.0333,0.0084,-0.0220,0.041
5.881000,-0.0195,0.0082,-0.0289,0.036
5.885000,-0.0153,-0.0110,-0.0120,0.022
5.890000,-0.0301,0.0091,-0.0866,0.092
5.895000,-0.0294,-0.0101,-0.0964,0.101
5.900000,-0.0098,0.0290,-0.0812,0.087
5.905000,-0.0331,0.0382,-0.1006,0.113
5.910000,-0.0182,0.0200,-0.1068,0.110
5.926000,0.0048,0.0161,-0.0761,0.078
5.927000,-0.0102,0.0016,-0.0588,0.060
5.928000,-0.0014,0.0062,-0.0561,0.056
5.947000,0.0038,0.0356,-0.0533,0.064
5.948000,0.0245,0.0209,-0.0161,0.036
5.949000,0.0403,-0.0270,-0.0210,0.053
5.949000,-0.0034,-0.0127,-0.0378,0.040
5.951000,0.0234,-0.0058,-0.0034,0.024
5.956000,0.0002,-0.0309,0.0189,0.036
5.961000,0.0009,-0.0321,0.0006,0.032
5.966000,0.0148,-0.0345,-0.0270,0.046
5.970000,0.0202,-0.0226,-0.0248,0.039
5.976000,-0.0112,-0.0132,-0.0177,0.025
5.982000,0.0002,-0.0323,-0.0320,0.045
5.986000,-0.0015,-0.0560,0.0000,0.056
5.991000,0.0003,-0.0641,-0.0335,0.072
5.996000,0.0223,-0.0602,-0.0228,0.068
6.001000,0.0085,-0.0457,-0.0455,0.065
6.006000,-0.0099,-0.0171,-0.0727,0.075
6.011000,0.0027,0.0065,-0.0796,0.080
6.029000,-0.0145,-0.0270,-0.0460,0.055
6.031000,0.0054,-0.0176,-0.0649,0.067
6.032000,-0.0142,-0.0011,-0.0531,0.055
6.034000,-0.0240,-0.0453,-0.0593,0.078
6.036000,-0.0230,-0.0251,-0.0584,0.068
6.041000,-0.0162,-0.0074,-0.0409,0.045
6.060000,-0.0070,-0.0066,-0.0582,0.059
6.061000,0.0056,-0.0259,0.0018,0.027
6.062000,-0.0033,-0.0213,0.0019,0.022
6.062000,-0.0251,-0.0132,-0.0098,0.030
6.073000,-0.0099,-0.0360,-0.0046,0.038
6.074000,0.0075,-0.0039,0.0100,0.013
6.077000,0.0033,0.0172,0.0069,0.019
6.086000,-0.0115,0.0226,-0.0187,0.032
6.088000,-0.0120,0.0317,-0.0156,0.037
6.092000,0.0149,-0.0092,-0.0125,0.021
6.099000,-0.0012,0.0357,-0.0270,0.045
6.102000,-0.0302,0.0387,0.0178,0.052
6.107000,0.0052,-0.0047,0.0007,0.007
6.112000,0.0036,-0.0025,0.0051,0.007
6.117000,0.0330,-0.0360,0.0168,0.052
6.123000,-0.0007,-0.0550,0.0010,0.055
6.127000,0.0003,-0.0276,0.0174,0.033
6.144000,-0.0165,-0.0597,0.0360,0.072
6.145000,-0.0034,0.0117,-0.0263,0.029
6.146000,0.0012,-0.0018,0.0032,0.004
6.171000,-0.0167,-0.0045,-0.0412,0.045
6.172000,-0.0133,0.0273,-0.0566,0.064
6.173000,0.0233,0.0208,-0.0791,0.085
6.174000,-0.0260,0.0014,-0.0219,0.034
6.174000,-0.0024,0.0165,-0.0433,0.046
6.175000,0.0019,-0.0028,-0.0812,0.081
6.178000,-0.0163,-0.0102,-0.0524,0.056
6.185000,-0.0355,-0.0116,-0.0500,0.062
6.188000,-0.0273,0.0167,-0.0893,0.095
6.193000,-0.0062,0.0008,-0.0512,0.052
6.199000,-0.0078,0.0112,-0.0384,0.041
6.203000,-0.0499,-0.0106,0.0253,0.057
6.209000,-0.0465,0.0046,0.0435,0.064
6.213000,-0.0239,-0.0230,0.0855,0.092
6.219000,0.0091,-0.0610,0.1037,0.121
6.224000,0.0028,-0.0774,0.1112,0.136
6.229000,-0.0035,-0.1007,0.0926,0.137
6.246000,0.0058,-0.0905,0.1147,0.146
6.248000,-0.0138,-0.0614,0.0465,0.078
6.248000,-0.0024,-0.0278,0.0691,0.075
6.251000,-0.0149,-0.0145,0.0169,0.027
6.254000,0.0236,-0.0002,-0.0030,0.024
6.259000,0.0142,0.0211,-0.0285,0.038
6.275000,-0.0045,0.0078,-0.0682,0.069
6.276000,-0.0160,0.0362,-0.0766,0.086
6.277000,-0.0297,0.0501,-0.1122,0.126
6.280000,-0.0053,0.0342,-0.1511,0.155
6.291000,-0.0287,0.0457,-0.1663,0.175
6.292000,0.0028,0.0036,-0.1115,0.112
6.295000,0.0045,-0.0287,-0.0717,0.077
6.304000,0.0430,-0.0537,-0.0480,0.084
6.305000,0.0516,-0.0464,0.0252,0.074
6.310000,0.0283,-0.0927,0.0679,0.118
6.315000,0.0134,-0.1102,0.0746,0.134
6.320000,0.0189,-0.0563,0.0965,0.113
6.325000,0.0053,-0.0609,0.1078,0.124
6.331000,-0.0462,-0.0121,0.0988,0.110
6.335000,-0.0665,-0.0265,0.0749,0.104
6.340000,-0.0739,0.0055,0.0396,0.084
6.345000,-0.0682,0.0113,0.0511,0.086
6.361000,-0.0415,0.0266,0.0248,0.055
6.362000,-0.0544,0.0241,-0.0235,0.064
6.363000,-0.0518,0.0026,-0.0713,0.088
6.366000,-0.0256,-0.0044,-0.0617,0.067
6.372000,0.0028,0.0064,-0.1246,0.125
6.376000,0.0060,0.0160,-0.1158,0.117
6.380000,0.0200,0.0397,-0.0883,0.099
6.389000,0.0232,0.0073,-0.1110,0.114
6.392000,0.0323,-0.0189,-0.1185,0.124
6.395000,0.0439,-0.0106,-0.0655,0.080
6.404000,0.0437,-0.0332,-0.0369,0.066
6.406000,0.0230,-0.0342,-0.0419,0.059
6.411000,0.0181,-0.0234,-0.0349,0.046
6.419000,0.0167,-0.0067,-0.0065,0.019
6.423000,0.0081,-0.0067,0.0206,0.023
6.427000,-0.0016,-0.0387,0.0428,0.058
6.433000,0.0113,-0.0100,0.0354,0.038
6.435000,-0.0140,-0.0193,0.0091,0.026
6.440000,-0.0096,0.0047,0.0224,0.025
6.445000,-0.0005,0.0189,0.0285,0.034
6.459000,0.0217,0.0094,0.0181,0.030
6.460000,0.0032,0.0154,-0.0147,0.022
6.460000,-0.0021,0.0522,-0.0115,0.054
6.480000,-0.0048,-0.0122,-0.0584,0.060
6.481000,0.0198,-0.0073,-0.0753,0.078
6.481000,0.0620,0.0166,-0.0552,0.085
6.482000,0.0281,-0.0132,-0.0605,0.068
6.486000,0.0099,0.0142,-0.0872,0.089
6.491000,0.0001,0.0283,-0.0924,0.097
6.496000,0.0393,0.0054,-0.1012,0.109
6.501000,0.0281,0.0030,-0.0875,0.092
6.506000,0.0288,0.0029,-0.0728,0.078
6.512000,0.0105,0.0040,-0.0643,0.065
6.516000,0.0351,0.0050,-0.0167,0.039
6.521000,0.0608,-0.0342,0.0177,0.072
6.526000,0.0210,-0.0447,0.0626,0.080
6.533000,0.0174,-0.0159,0.0540,0.059
6.537000,-0.0100,-0.0335,-0.0031,0.035
6.542000,-0.0089,-0.0202,-0.0145,0.026
6.547000,-0.0114,-0.0211,0.0038,0.024
6.552000,-0.0270,-0.0791,0.0375,0.092
6.557000,-0.0234,-0.0855,0.0506,0.102
6.562000,0.0133,-0.0871,0.0470,0.100
6.580000,0.0128,-0.0530,0.0258,0.060
6.581000,0.0099,-0.0406,0.0464,0.062
6.582000,0.0356,-0.0354,0.0039,0.050
6.582000,0.0435,-0.0457,-0.0097,0.064
6.588000,0.0311,-0.0452,-0.0005,0.055
6.593000,0.0285,-0.0068,-0.0473,0.056
6.607000,0.0282,0.0088,-0.0595,0.066
6.608000,0.0420,-0.0091,-0.0112,0.044
6.609000,0.0473,0.0053,-0.0642,0.080
6.613000,0.0489,0.0124,-0.0337,0.061
6.622000,0.0553,0.0420,-0.0178,0.072
6.623000,0.0451,0.0121,-0.0066,0.047
6.628000,0.0433,0.0037,-0.0158,0.046
6.636000,0.0368,-0.0022,-0.0484,0.061
6.638000,0.0648,0.0145,-0.0391,0.077
6.643000,0.0450,0.0192,-0.0227,0.054
6.650000,0.0575,0.0180,-0.0777,0.098
6.653000,0.0390,-0.0094,-0.0289,0.049
6.659000,0.0552,-0.0093,-0.0079,0.057
6.664000,0.0357,0.0075,-0.0438,0.057
6.678000,0.0638,0.0028,-0.0392,0.075
6.679000,0.0608,0.0112,-0.0429,0.075
6.680000,0.0470,0.0088,-0.0478,0.068
6.708000,0.0537,-0.0292,-0.0279,0.067
6.709000,0.0639,-0.0159,-0.0366,0.075
6.709000,0.0646,0.0056,-0.0071,0.065
6.710000,0.0856,-0.0086,-0.0422,0.096
6.710000,0.0482,-0.0549,-0.0543,0.091
6.712000,0.0564,-0.0426,-0.0284,0.076
6.714000,0.0454,-0.0173,0.0067,0.049
6.725000,0.0262,-0.0290,-0.0283,0.048
6.726000,0.0333,-0.0050,-0.0203,0.039
6.730000,0.0486,-0.0049,-0.0243,0.055
6.740000,0.0388,0.0046,0.0062,0.040
6.741000,-0.0053,-0.0286,-0.0015,0.029
6.745000,0.0021,-0.0664,0.0086,0.067
6.751000,0.0200,-0.0219,-0.0051,0.030
6.755000,0.0439,-0.0253,0.0288,0.058
6.759000,0.0320,-0.0560,0.0077,0.065
6.767000,0.0095,-0.0638,0.0179,0.067
6.770000,0.0264,-0.0016,0.0030,0.027
6.775000,0.0254,-0.0265,-0.0095,0.038
6.780000,0.0077,-0.0417,-0.0027,0.043
6.796000,0.0294,-0.0188,-0.0030,0.035
6.797000,0.0011,-0.0649,-0.0306,0.072
6.798000,0.0216,-0.0288,-0.0082,0.037
6.824000,0.0467,-0.0214,0.0010,0.051
6.825000,0.0443,-0.0236,-0.0446,0.067
6.826000,0.0383,-0.0210,-0.0506,0.067
6.827000,0.0453,0.0147,-0.0531,0.071
6.827000,0.0654,-0.0281,-0.0317,0.078
6.828000,0.0463,0.0148,-0.0403,0.063
6.831000,0.0723,0.0076,-0.0499,0.088
6.839000,0.0685,-0.0031,-0.0770,0.103
6.841000,0.0185,0.0290,-0.0766,0.084
6.846000,0.0400,-0.0021,-0.0809,0.090
6.853000,0.0198,0.0135,-0.0708,0.075
6.856000,0.0377,0.0015,-0.0788,0.087
6.861000,0.0103,-0.0150,-0.1020,0.104
6.867000,0.0222,0.0030,-0.0931,0.096
6.871000,0.0626,-0.0386,-0.1012,0.125
6.876000,0.0302,-0.0216,-0.0817,0.090
6.881000,0.0456,-0.0190,-0.0353,0.061
6.886000,0.0633,-0.0545,-0.0345,0.090
6.891000,0.0429,-0.0232,-0.0171,0.052
6.896000,0.0606,-0.0302,-0.0165,0.070
6.914000,0.0439,-0.0454,0.0102,0.064
6.916000,0.0701,-0.0605,-0.0107,0.093
6.917000,0.0795,-0.0221,-0.0231,0.086
6.918000,-0.0026,-0.0374,-0.0187,0.042
6.921000,0.0193,-0.0288,-0.0368,0.051
6.926000,0.0338,-0.0500,-0.0559,0.082
6.932000,0.0459,-0.0531,-0.0345,0.078
6.944000,0.0187,-0.0301,-0.0667,0.076
6.946000,0.0367,-0.0632,-0.0821,0.110
6.946000,0.0402,-0.0460,-0.0773,0.099
6.959000,0.0603,-0.0207,-0.0655,0.091
6.960000,0.0364,-0.0337,-0.0574,0.076
6.963000,0.0519,-0.0441,-0.0898,0.113
6.972000,0.0578,-0.0201,-0.1018,0.119
6.973000,0.0507,-0.0403,-0.0807,0.103
6.978000,0.0330,-0.0472,-0.0810,0.099
6.984000,0.0487,-0.0161,-0.0970,0.110
6.987000,0.0536,0.0004,-0.0952,0.109
6.993000,0.0323,-0.0057,-0.1065,0.111
6.998000,0.0207,0.0238,-0.1379,0.142
7.014000,0.0363,-0.0146,-0.0873,0.096
7.015000,0.0434,0.0174,-0.0858,0.098
7.016000,0.0242,0.0136,-0.0901,0.094
7.021000,0.0063,-0.0152,-0.0992,0.101
7.024000,0.0515,-0.0152,-0.0760,0.093
7.027000,0.0394,-0.0175,-0.0257,0.050
7.050000,0.0523,-0.0282,-0.0019,0.059
7.051000,0.0296,-0.0316,-0.0031,0.043
7.051000,0.0310,-0.0588,-0.0232,0.070
7.052000,0.0360,-0.0276,-0.0051,0.046
7.052000,0.0339,-0.0263,0.0021,0.043
7.058000,0.0366,-0.0774,-0.0335,0.092
7.063000,0.0487,-0.0603,-0.0416,0.088
7.069000,0.0229,-0.0185,-0.0272,0.040
7.073000,0.0353,-0.0316,-0.0935,0.105
7.078000,0.0060,-0.0327,-0.0859,0.092
7.084000,0.0088,-0.0137,-0.0736,0.075
7.089000,0.0176,0.0111,-0.0877,0.090
7.094000,0.0037,-0.0154,-0.0803,0.082
7.099000,-0.0160,-0.0203,-0.0732,0.078
7.104000,-0.0201,-0.0251,-0.0839,0.090
7.109000,-0.0230,-0.0335,-0.1018,0.110
7.114000,-0.0295,-0.0074,-0.0672,0.074
7.132000,0.0130,-0.0338,-0.0617,0.071
7.136000,0.0064,-0.0398,-0.0811,0.091
7.136000,-0.0547,-0.0315,-0.0077,0.064
7.137000,-0.0168,-0.0494,0.0321,0.061
7.139000,0.0032,-0.0576,0.0623,0.085
7.144000,-0.0171,-0.0562,0.0901,0.108
7.161000,-0.0398,-0.0702,0.1025,0.130
7.162000,-0.0185,-0.0638,0.1008,0.121
7.163000,-0.0320,-0.0539,0.0780,0.100
7.164000,-0.0014,-0.0974,0.0649,0.117
7.176000,0.0360,-0.0777,0.0330,0.092
7.176000,0.0659,-0.0486,0.0049,0.082
7.180000,0.0350,-0.0364,-0.0480,0.070
7.188000,0.0410,-0.0290,-0.0673,0.084
7.190000,0.0622,0.0092,-0.1293,0.144
7.195000,0.0548,0.0281,-0.1505,0.163
7.201000,0.0642,0.0396,-0.1954,0.209
7.205000,0.0593,0.0320,-0.1689,0.182
7.210000,0.0427,0.0399,-0.1639,0.174
7.215000,0.0595,0.0097,-0.1118,0.127
7.231000,0.0301,-0.0085,-0.0817,0.087
7.233000,0.0141,0.0007,-0.0367,0.039
7.234000,0.0092,-0.0592,-0.0077,0.060
7.236000,0.0328,-0.0556,0.0481,0.081
7.240000,0.0278,-0.0771,0.0593,0.101
7.245000,-0.0010,-0.0912,0.0751,0.118
7.260000,-0.0128,-0.0447,0.1312,0.139
7.261000,0.0027,-0.0746,0.1393,0.158
7.262000,0.0059,-0.0317,0.1156,0.120
7.266000,-0.0039,-0.0021,0.0782,0.078
7.275000,-0.0151,0.0095,0.0509,0.054
7.276000,-0.0191,0.0033,-0.0365,0.041
7.281000,0.0125,-0.0076,-0.0409,0.043
7.289000,-0.0145,0.0315,-0.0381,0.051
7.291000,0.0026,0.0798,-0.0921,0.122
7.296000,-0.0315,0.0245,-0.1017,0.109
7.301000,-0.0154,0.0016,-0.1089,0.110
7.306000,-0.0065,-0.0222,-0.1101,0.112
7.311000,0.0037,-0.0400,-0.1245,0.131
7.316000,0.0400,-0.0210,-0.0988,0.109
7.321000,0.0226,-0.0400,-0.0592,0.075
7.326000,0.0313,-0.0400,-0.0557,0.075
7.332000,0.0127,-0.0233,0.0117,0.029
7.348000,-0.0046,-0.0460,0.0215,0.051
7.349000,-0.0491,-0.0614,0.0372,0.087
7.350000,-0.0078,-0.0267,0.0506,0.058
7.354000,0.0069,-0.0302,0.0676,0.074
7.356000,-0.0034,0.0019,0.1097,0.110
7.361000,-0.0350,-0.0018,0.0567,0.067
7.375000,-0.0261,-0.0101,0.0257,0.038
7.376000,-0.0363,-0.0125,0.0104,0.040
7.377000,-0.0382,0.0386,0.0096,0.055
7.383000,0.0134,0.0336,-0.0340,0.050
7.390000,0.0169,0.0024,-0.0440,0.047
7.392000,0.0062,0.0225,-0.0742,0.078
7.397000,0.0264,0.0211,-0.0793,0.086
7.403000,0.0336,0.0019,-0.0478,0.058
7.407000,0.0536,0.0100,-0.0536,0.076
7.413000,0.0605,0.0335,-0.0749,0.102
7.419000,0.0116,0.0283,-0.0522,0.060
7.422000,0.0046,0.0183,-0.0132,0.023
7.428000,0.0108,0.0476,-0.0495,0.070
7.433000,0.0110,0.0220,-0.0369,0.044
7.450000,0.0146,0.0121,-0.0386,0.043
7.451000,0.0147,0.0201,-0.0011,0.025
7.452000,0.0280,0.0006,0.0040,0.028
7.455000,0.0068,-0.0221,0.0641,0.068
7.458000,-0.0082,-0.0174,0.0290,0.035
7.463000,-0.0423,0.0064,0.0371,0.057
7.479000,-0.0190,0.0146,0.0657,0.070
7.480000,-0.0387,-0.0200,0.0729,0.085
7.481000,-0.0488,-0.0317,0.0396,0.070
7.493000,-0.0220,-0.0409,0.0019,0.046
7.495000,-0.0167,-0.0549,-0.0190,0.060
7.495000,-0.0152,-0.0640,0.0242,0.070
7.500000,-0.0374,-0.0849,0.0418,0.102
7.508000,-0.0321,-0.0523,0.0353,0.071
7.510000,-0.0304,-0.0663,0.0394,0.083
7.514000,-0.0251,-0.0647,0.0411,0.081
7.519000,-0.0460,-0.0299,0.0773,0.095
7.524000,-0.0465,-0.0013,0.0217,0.051
7.529000,-0.0246,-0.0216,0.0045,0.033
7.546000,-0.0340,0.0105,0.0244,0.043
7.547000,-0.0267,0.0115,0.0204,0.036
7.547000,0.0006,0.0019,0.0046,0.005
7.549000,0.0049,-0.0017,0.0221,0.023
7.570000,0.0165,0.0030,0.0241,0.029
7.571000,0.0423,-0.0007,0.0259,0.050
7.572000,0.0039,-0.0031,0.0077,0.009
7.572000,0.0346,-0.0293,-0.0010,0.045
7.575000,0.0471,-0.0469,-0.0133,0.068
7.580000,0.0181,-0.0562,-0.0327,0.067
7.586000,0.0357,-0.0464,-0.0330,0.067
7.589000,0.0022,-0.0450,-0.0216,0.050
7.594000,0.0070,-0.0116,0.0121,0.018
7.600000,-0.0013,-0.0188,0.0218,0.029
7.605000,0.0119,-0.0284,0.0137,0.034
7.609000,0.0072,-0.0319,-0.0003,0.033
7.614000,-0.0390,-0.0414,0.0120,0.058
7.619000,-0.0040,-0.0081,0.0254,0.027
7.625000,-0.0251,-0.0047,0.0171,0.031
7.630000,-0.0391,-0.0298,-0.0053,0.049
7.646000,-0.0184,-0.0452,-0.0050,0.049
7.647000,-0.0147,-0.0048,0.0047,0.016
7.648000,-0.0050,-0.0026,0.0082,0.010
7.669000,0.0022,-0.0444,0.0331,0.055
7.670000,0.0213,-0.0230,0.0186,0.036
7.670000,0.0165,-0.0088,0.0303,0.036
7.671000,-0.0082,-0.0375,0.0384,0.054
7.671000,-0.0068,-0.0245,0.0429,0.050
7.675000,0.0218,0.0016,0.0462,0.051
7.680000,0.0098,0.0109,0.0235,0.028
7.686000,0.0145,-0.0144,0.0296,0.036
7.691000,0.0191,0.0022,0.0166,0.025
7.695000,0.0309,0.0221,0.0334,0.051
7.701000,0.0318,-0.0436,0.0511,0.074
7.705000,0.0492,-0.0019,0.0153,0.052
7.711000,0.0428,0.0074,-0.0012,0.043
7.716000,0.0472,-0.0131,0.0239,0.054
7.721000,0.0338,0.0236,0.0500,0.065
7.726000,0.0193,-0.0184,-0.0131,0.030
7.731000,0.0109,-0.0030,-0.0249,0.027
7.736000,0.0323,0.0015,-0.0376,0.050
7.742000,0.0132,0.0024,-0.0478,0.050
7.746000,-0.0011,0.0092,-0.0225,0.024
7.753000,-0.0021,0.0088,-0.0318,0.033
7.756000,0.0196,0.0156,-0.0090,0.027
7.761000,0.0126,-0.0075,-0.0006,0.015
7.766000,0.0140,0.0089,-0.0220,0.028
7.783000,0.0023,0.0121,0.0114,0.017
7.785000,0.0074,0.0116,-0.0006,0.014
7.786000,0.0221,0.0017,-0.0149,0.027
7.786000,0.0258,-0.0082,0.0172,0.032
7.792000,0.0236,0.0010,-0.0400,0.046
7.796000,0.0143,0.0090,0.0041,0.017
7.815000,0.0205,0.0109,0.0170,0.029
7.816000,0.0374,-0.0026,-0.0487,0.061
7.816000,0.0530,0.0053,-0.0128,0.055
7.817000,0.0544,0.0037,0.0063,0.055
7.829000,0.0546,0.0068,-0.0057,0.055
7.830000,0.0666,-0.0007,0.0086,0.067
7.832000,0.0347,0.0084,0.0323,0.048
7.843000,0.0031,-0.0146,-0.0142,0.021
7.844000,0.0133,0.0148,-0.0296,0.036
7.847000,0.0174,0.0178,-0.0033,0.025
7.854000,0.0014,0.0137,-0.0080,0.016
7.857000,-0.0039,0.0049,-0.0139,0.015
7.862000,0.0062,0.0092,0.0219,0.025
7.867000,0.0198,0.0040,0.0017,0.020
7.882000,0.0240,0.0178,0.0078,0.031
7.883000,0.0007,0.0304,-0.0074,0.031
7.883000,-0.0082,0.0512,-0.0200,0.056
7.910000,0.0080,0.0422,-0.0099,0.044
7.911000,0.0131,-0.0202,-0.0283,0.037
7.911000,-0.0006,0.0058,-0.0323,0.033
7.912000,-0.0357,0.0091,-0.0006,0.037
7.913000,-0.0348,-0.0008,0.0130,0.037
7.913000,0.0158,-0.0343,0.0276,0.047
7.922000,0.0138,-0.0106,0.0052,0.018
7.923000,0.0071,0.0154,-0.0217,0.028
7.929000,-0.0175,0.0031,-0.0388,0.043
7.933000,-0.0156,-0.0197,0.0000,0.025
7.939000,-0.0033,0.0099,0.0006,0.010
7.944000,-0.0194,0.0191,-0.0057,0.028
7.949000,-0.0033,-0.0122,-0.0121,0.017
7.953000,-0.0244,-0.0182,-0.0230,0.038
7.959000,-0.0228,-0.0063,-0.0350,0.042
7.964000,-0.0319,0.0138,-0.0172,0.039
7.983000,-0.0291,-0.0376,-0.0293,0.056
7.985000,0.0010,-0.0124,-0.0031,0.013
7.986000,0.0023,-0.0184,0.0252,0.031
7.986000,0.0489,-0.0196,0.0570,0.078
7.989000,0.0085,-0.0112,0.0366,0.039
7.994000,0.0231,-0.0005,0.0520,0.057
8.000000,0.0138,0.0125,0.0093,0.021
8.013000,0.0188,0.0112,-0.0164,0.027
8.015000,0.0083,0.0348,-0.0230,0.042
8.015000,0.0192,0.0059,-0.0484,0.052
8.028000,0.0205,0.0130,-0.0607,0.065
8.029000,0.0348,0.0318,-0.0409,0.062
8.030000,0.0097,0.0291,-0.0439,0.054
8.041000,0.0301,0.0299,-0.0863,0.096
8.042000,0.0216,0.0379,-0.0666,0.080
8.045000,-0.0081,0.0292,-0.0981,0.103
8.050000,-0.0020,0.0194,-0.1081,0.110
8.055000,-0.0173,0.0096,-0.0741,0.077
8.060000,-0.0122,-0.0013,-0.0750,0.076
8.065000,-0.0119,0.0009,-0.0747,0.076
8.070000,-0.0177,0.0150,-0.0126,0.026
8.075000,-0.0424,-0.0089,0.0206,0.048
8.080000,-0.0276,-0.0505,0.0657,0.087
8.085000,-0.0045,-0.0370,0.0372,0.053
8.090000,0.0244,-0.0723,0.1089,0.133
8.095000,0.0199,-0.0586,0.1210,0.136
8.100000,0.0249,-0.0807,0.1127,0.141
8.116000,0.0477,-0.0776,0.0606,0.109
8.117000,0.0227,-0.0591,0.0305,0.070
8.118000,0.0310,-0.0514,0.0206,0.063
8.143000,0.0321,-0.0188,-0.0096,0.038
8.144000,0.0260,-0.0317,-0.0584,0.071
8.145000,0.0248,-0.0135,-0.0865,0.091
8.146000,0.0034,0.0389,-0.1060,0.113
8.147000,0.0011,0.0767,-0.1454,0.164
8.147000,-0.0237,0.0881,-0.1775,0.200
8.152000,-0.0379,0.0851,-0.1346,0.164
8.158000,0.0181,0.0762,-0.1670,0.184
8.161000,0.0214,0.0151,-0.1344,0.137
8.166000,0.0212,-0.0172,-0.0528,0.059
8.173000,0.0757,-0.0398,-0.0019,0.086
8.177000,0.0611,-0.0647,0.0352,0.096
8.182000,0.0742,-0.0728,0.0789,0.130
8.199000,0.0518,-0.0987,0.1043,0.153
8.200000,0.0085,-0.0853,0.1247,0.151
8.201000,0.0321,-0.0756,0.1023,0.131
8.202000,-0.0063,-0.0315,0.0848,0.091
8.227000,-0.0396,-0.0222,0.0841,0.096
8.228000,-0.0550,0.0452,0.0658,0.097
8.229000,-0.0325,0.0754,0.0442,0.093
8.229000,-0.0411,0.0507,0.0097,0.066
8.230000,-0.0259,0.0761,-0.0195,0.083
8.232000,-0.0039,0.0752,-0.0092,0.076
8.239000,0.0166,0.0602,-0.0439,0.076
8.242000,0.0061,0.0464,-0.0640,0.079
8.247000,0.0217,0.0316,-0.1220,0.128
8.252000,0.0410,0.0098,-0.1451,0.151
8.257000,0.0259,-0.0333,-0.1113,0.119
8.262000,0.0501,-0.0393,-0.1470,0.160
8.267000,0.0790,-0.0762,-0.1648,0.198
8.272000,0.0769,-0.0381,-0.1234,0.150
8.278000,0.0856,-0.0479,-0.0519,0.111
8.282000,0.0550,-0.0635,-0.0228,0.087
8.289000,0.0556,-0.0601,-0.0038,0.082
8.293000,0.0539,-0.0758,0.0658,0.114
8.298000,0.0759,-0.1045,0.0586,0.142
8.302000,0.0352,-0.0879,0.0583,0.111
8.323000,0.0267,-0.1094,0.0745,0.135
8.324000,0.0171,-0.1094,0.0809,0.137
8.325000,0.0088,-0.0679,0.0777,0.104
8.326000,0.0516,-0.0920,0.0696,0.126
8.329000,0.0204,-0.0851,0.0675,0.111
8.332000,-0.0104,-0.0616,0.0509,0.081
8.351000,-0.0112,-0.0716,0.0332,0.080
8.352000,0.0070,-0.0412,0.0260,0.049
8.353000,0.0084,-0.0349,-0.0016,0.036
8.355000,0.0099,-0.0251,-0.0602,0.066
8.358000,0.0078,-0.0286,-0.0478,0.056
8.363000,0.0177,-0.0345,-0.0657,0.076
8.368000,0.0193,-0.0618,-0.0934,0.114
8.374000,-0.0005,-0.0499,-0.0752,0.090
8.378000,-0.0211,-0.0405,-0.1171,0.126
8.382000,-0.0058,-0.0669,-0.0914,0.113
8.397000,0.0084,-0.0717,-0.0830,0.110
8.398000,0.0250,-0.0719,-0.0559,0.094
8.399000,0.0214,-0.0757,-0.0518,0.094
8.407000,0.0170,-0.0938,0.0171,0.097
8.408000,0.0068,-0.1082,0.0321,0.113
8.413000,0.0159,-0.0952,0.0529,0.110
8.418000,-0.0071,-0.1049,0.0378,0.112
8.431000,0.0413,-0.0741,0.0654,0.107
8.432000,0.0346,-0.0792,0.0951,0.129
8.433000,0.0683,-0.1246,0.1293,0.192
8.451000,0.0589,-0.1589,0.1239,0.210
8.452000,0.0508,-0.1752,0.0993,0.208
8.452000,0.0583,-0.1486,0.0913,0.184
8.453000,0.0943,-0.1259,0.0297,0.160
8.462000,0.0816,-0.1069,0.1036,0.170
8.464000,0.0751,-0.1298,0.0755,0.168
8.469000,0.0734,-0.0705,0.0867,0.134
8.474000,0.0280,-0.0760,0.0464,0.093
8.479000,0.0388,-0.0612,0.0561,0.092
8.485000,0.0247,-0.0347,0.0240,0.049
8.489000,0.0394,0.0189,-0.0081,0.044
8.495000,0.0278,0.0257,0.0134,0.040
8.500000,-0.0026,0.0241,0.0153,0.029
8.504000,0.0088,0.0071,0.0159,0.020
8.510000,0.0239,0.0008,-0.0218,0.032
8.514000,-0.0074,-0.0125,-0.0236,0.028
8.531000,0.0187,-0.0507,-0.0150,0.056
8.532000,0.0376,-0.0505,-0.0138,0.064
8.532000,0.0149,-0.0351,-0.0213,0.044
8.535000,0.0518,-0.0613,0.0253,0.084
8.551000,0.0363,-0.0719,-0.0237,0.084
8.552000,0.0293,-0.0990,0.0010,0.103
8.552000,0.0416,-0.0524,-0.0081,0.067
8.563000,0.0480,-0.0715,-0.0165,0.088
8.564000,0.0248,-0.1012,0.0102,0.105
8.565000,0.0670,-0.0914,-0.0147,0.114
8.575000,0.0580,-0.0830,-0.0100,0.102
8.577000,0.0753,-0.0497,-0.0353,0.097
8.581000,0.0855,-0.0903,-0.0560,0.136
8.586000,0.0887,-0.1128,-0.0010,0.144
8.591000,0.0743,-0.1482,-0.0167,0.167
8.596000,0.0555,-0.1513,-0.0209,0.162
8.601000,0.0619,-0.1555,-0.0551,0.176
8.605000,0.0492,-0.1716,-0.0264,0.180
8.611000,0.0451,-0.1603,-0.0530,0.175
8.616000,0.0256,-0.1775,-0.0501,0.186
8.632000,0.0312,-0.2230,-0.0429,0.229
8.633000,0.0498,-0.2325,-0.0383,0.241
8.633000,0.0279,-0.2455,-0.0332,0.249
8.657000,0.0169,-0.2726,-0.0319,0.275
8.658000,0.0284,-0.2935,-0.0037,0.295
8.659000,0.0517,-0.3106,-0.0187,0.315
8.659000,0.0356,-0.3109,-0.0186,0.314
8.660000,0.0374,-0.3017,-0.0213,0.305
8.662000,0.0310,-0.3234,-0.0159,0.325
8.667000,0.0175,-0.2962,-0.0026,0.297
8.673000,0.0316,-0.2877,-0.0061,0.289
8.677000,0.0529,-0.2660,0.0441,0.275
8.682000,0.0682,-0.2886,-0.0247,0.298
8.688000,0.0441,-0.2668,-0.0482,0.275
8.692000,0.0513,-0.2594,-0.0113,0.265
8.697000,0.0705,-0.2854,-0.0153,0.294
8.702000,0.0552,-0.2396,-0.0305,0.248
8.706000,0.0353,-0.2751,-0.0378,0.280
8.712000,0.0230,-0.3058,-0.0432,0.310
8.717000,0.0110,-0.2755,-0.0516,0.280
8.722000,0.0253,-0.3061,-0.0293,0.309
8.727000,-0.0391,-0.3210,0.0042,0.323
8.732000,-0.0363,-0.3252,-0.0358,0.329
8.752000,-0.0525,-0.3376,-0.0101,0.342
8.755000,-0.0111,-0.3367,0.0053,0.337
8.756000,-0.0377,-0.3693,0.0561,0.375
8.756000,-0.0412,-0.3659,0.0134,0.368
8.759000,-0.0240,-0.3577,-0.0256,0.359
8.764000,-0.0520,-0.3422,-0.0353,0.348
8.768000,-0.0547,-0.3362,0.0300,0.342
8.781000,-0.0431,-0.3385,0.0494,0.345
8.782000,-0.0389,-0.3286,0.0543,0.335
8.783000,-0.0493,-0.3354,0.1021,0.354
8.793000,-0.0419,-0.3862,0.1273,0.409
8.794000,-0.0061,-0.3818,0.1179,0.400
8.799000,0.0118,-0.3462,0.1205,0.367
8.805000,0.0033,-0.3272,0.1399,0.356
8.808000,-0.0125,-0.3692,0.0473,0.372
8.814000,-0.0688,-0.3703,0.0025,0.377
8.819000,-0.0952,-0.3569,-0.0245,0.370
8.824000,-0.0525,-0.3123,-0.0564,0.322
8.829000,-0.0325,-0.2987,0.0180,0.301
8.833000,-0.0004,-0.3436,0.0071,0.344
8.849000,-0.0220,-0.2795,0.0163,0.281
8.849000,-0.0735,-0.2393,0.0423,0.254
8.850000,-0.0221,-0.2528,0.0571,0.260
8.853000,-0.0223,-0.3151,0.0349,0.318
8.870000,-0.0414,-0.3271,0.0259,0.331
8.871000,-0.0546,-0.3353,0.1044,0.355
8.872000,-0.0175,-0.3183,0.1264,0.343
8.875000,-0.0295,-0.3633,0.0684,0.371
8.879000,-0.0761,-0.4070,-0.0243,0.415
8.884000,-0.0437,-0.4600,-0.0334,0.463
8.891000,-0.0543,-0.4375,-0.0131,0.441
8.894000,-0.0302,-0.4292,0.0077,0.430
8.900000,-0.0252,-0.4912,0.0170,0.492
8.905000,-0.0513,-0.5087,0.0117,0.511
8.910000,-0.0151,-0.5750,-0.0196,0.576
8.915000,-0.0266,-0.5800,-0.0026,0.581
8.920000,-0.0461,-0.6338,0.0315,0.636
8.925000,-0.0380,-0.6539,0.0654,0.658
8.930000,-0.0368,-0.6786,0.1070,0.688
8.935000,-0.0413,-0.6911,0.0647,0.695
8.940000,-0.0598,-0.7285,0.0950,0.737
8.945000,-0.0757,-0.7418,0.1420,0.759
8.950000,-0.0831,-0.7776,0.1627,0.799
8.971000,-0.1002,-0.8264,0.1815,0.852
8.972000,-0.1040,-0.8534,0.1514,0.873
8.972000,-0.0945,-0.8600,0.1217,0.874
8.973000,-0.1223,-0.8521,0.0877,0.865
8.975000,-0.1311,-0.8644,0.0648,0.877
8.980000,-0.1532,-0.8645,0.0500,0.879
8.986000,-0.1527,-0.8070,0.0510,0.823
8.995000,-0.0988,-0.8199,0.0396,0.827
8.996000,-0.0917,-0.8552,-0.0153,0.860
9.001000,-0.0920,-0.8699,-0.0262,0.875
9.009000,-0.1063,-0.8700,-0.0030,0.876
9.011000,-0.1049,-0.8555,-0.0601,0.864
9.016000,-0.0507,-0.8467,-0.0042,0.848
9.023000,-0.0358,-0.8054,-0.0024,0.806
9.026000,-0.0555,-0.8190,0.0028,0.821
9.031000,-0.0427,-0.7702,-0.0015,0.771
9.036000,-0.0690,-0.7201,-0.0035,0.723
9.042000,-0.0617,-0.7022,0.0392,0.706
9.046000,-0.0555,-0.6638,0.0399,0.667
9.051000,-0.0923,-0.6206,0.0125,0.628
9.056000,-0.0801,-0.5868,0.0163,0.592
9.062000,-0.0776,-0.6080,0.0386,0.614
9.067000,-0.0979,-0.5596,0.0047,0.568
9.086000,-0.1157,-0.5710,0.0080,0.583
9.087000,-0.0795,-0.5677,-0.0236,0.574
9.088000,-0.1055,-0.5235,-0.0100,0.534
9.089000,-0.0848,-0.4887,0.0368,0.497
9.111000,-0.1015,-0.4213,0.1421,0.456
9.112000,-0.0544,-0.3396,0.3002,0.456
9.113000,-0.0067,-0.3582,0.3364,0.491
9.114000,-0.0542,-0.3744,0.2465,0.452
9.114000,-0.1092,-0.3606,0.1968,0.425
9.117000,-0.1585,-0.3502,0.0887,0.394
9.124000,-0.1832,-0.3646,-0.0498,0.411
9.127000,-0.1722,-0.3606,-0.0955,0.411
9.132000,-0.1611,-0.3237,-0.1210,0.381
9.137000,-0.1701,-0.3054,-0.1527,0.381
9.142000,-0.1692,-0.3045,0.0175,0.349
9.147000,-0.1564,-0.3412,0.1076,0.390
9.152000,-0.1326,-0.3895,0.1852,0.451
9.157000,-0.1035,-0.4793,0.2539,0.552
9.162000,-0.1374,-0.5137,0.2843,0.603
9.168000,-0.1624,-0.5791,0.3869,0.715
9.185000,-0.1595,-0.6396,0.4747,0.812
9.187000,-0.1935,-0.6740,0.4777,0.848
9.187000,-0.2846,-0.6823,0.3971,0.839
9.194000,-0.4924,-0.7363,0.3145,0.940
9.195000,-0.5396,-0.7248,0.3434,0.967
9.197000,-0.4898,-0.6477,0.4199,0.914
9.202000,-0.4511,-0.5684,0.5964,0.939
9.218000,-0.3573,-0.4691,0.7034,0.918
9.219000,-0.3416,-0.4493,0.8049,0.983
9.220000,-0.2702,-0.4979,0.7810,0.965
9.235000,-0.1811,-0.5864,0.6788,0.915
9.235000,-0.1576,-0.6334,0.4718,0.805
9.236000,-0.1248,-0.6425,0.3036,0.721
9.241000,-0.1051,-0.6732,0.1853,0.706
9.247000,-0.0396,-0.6815,0.1063,0.691
9.249000,-0.0025,-0.6612,0.0304,0.662
9.253000,0.0159,-0.6938,0.0210,0.694
9.258000,0.0265,-0.6869,0.0226,0.688
9.264000,0.0542,-0.7075,-0.0497,0.711
9.269000,0.0918,-0.7329,-0.0774,0.743
9.274000,0.0986,-0.6877,-0.0954,0.701
9.279000,0.1129,-0.7130,-0.0839,0.727
9.284000,0.1130,-0.7512,-0.0532,0.762
9.299000,0.1491,-0.7665,-0.0169,0.781
9.300000,0.1255,-0.7637,0.0073,0.774
9.301000,0.1594,-0.7415,0.0048,0.758
9.304000,0.1332,-0.6988,-0.0231,0.712
9.321000,0.0925,-0.6785,-0.0013,0.685
9.322000,0.1076,-0.6736,-0.0312,0.683
9.323000,0.1106,-0.7184,-0.0653,0.730
9.328000,0.1185,-0.7713,-0.1012,0.787
9.329000,0.1399,-0.8165,-0.0800,0.832
9.334000,0.1451,-0.8914,-0.0855,0.907
9.339000,0.1679,-0.9432,-0.0664,0.960
9.344000,0.1305,-0.9695,-0.0512,0.980
9.350000,0.1079,-0.9920,-0.0147,0.998
9.357000,0.0881,-1.0215,0.0374,1.026
9.360000,0.0436,-1.0688,0.0928,1.074
9.365000,0.0044,-1.0740,0.1291,1.082
9.370000,-0.0407,-1.0898,0.2013,1.109
9.375000,-0.0619,-1.0963,0.2835,1.134
9.380000,-0.1108,-1.0788,0.3085,1.127
9.385000,-0.1420,-1.0674,0.3124,1.121
9.402000,-0.1985,-0.9986,0.3489,1.076
9.403000,-0.2371,-0.9337,0.4325,1.056
9.403000,-0.2482,-0.8403,0.4749,0.997
9.423000,-0.2751,-0.7986,0.5714,1.020
9.425000,-0.3071,-0.6783,0.6039,0.959
9.425000,-0.3775,-0.5883,0.6719,0.970
9.426000,-0.4038,-0.5536,0.7190,0.993
9.427000,-0.4159,-0.5184,0.6978,0.964
9.431000,-0.4159,-0.4429,0.6967,0.924
9.436000,-0.3776,-0.3108,0.8918,1.017
9.441000,-0.3193,-0.3005,1.0516,1.139
9.446000,-0.3462,-0.3165,0.8760,0.994
9.451000,-0.3554,-0.3647,0.7245,0.886
9.457000,-0.3869,-0.3684,0.5835,0.791
9.461000,-0.4762,-0.2569,0.5494,0.771
9.466000,-0.5339,-0.1068,0.6518,0.849
9.472000,-0.5096,0.0389,0.7530,0.910
9.477000,-0.4770,0.1301,0.8632,0.995
9.481000,-0.5107,0.2017,0.9312,1.081
9.487000,-0.4974,0.2333,0.8671,1.027
9.492000,-0.4610,0.2311,0.8157,0.965
9.497000,-0.4531,0.2215,0.7850,0.933
9.502000,-0.4803,0.2417,0.7558,0.928
9.521000,-0.4793,0.2498,0.7353,0.913
9.523000,-0.4513,0.2852,0.7533,0.923
9.523000,-0.4108,0.2714,0.7573,0.903
9.524000,-0.3528,0.2561,0.7631,0.879
9.527000,-0.2917,0.2835,0.7743,0.875
9.532000,-0.2836,0.3056,0.7935,0.896
9.538000,-0.2397,0.2830,0.8064,0.888
9.552000,-0.2043,0.2660,0.7950,0.863
9.553000,-0.1418,0.2818,0.9101,0.963
9.553000,-0.0773,0.2097,0.8888,0.916
9.567000,-0.0569,0.1515,0.7563,0.773
9.568000,-0.0671,0.1072,0.7394,0.750
9.569000,-0.0684,0.1606,0.8250,0.843
9.582000,-0.0741,0.1789,0.9173,0.938
9.584000,-0.0811,0.2219,0.9540,0.983
9.585000,-0.0976,0.2822,1.0227,1.065
9.588000,-0.0965,0.2798,1.0935,1.133
9.593000,-0.1162,0.2637,1.1591,1.194
9.598000,-0.1291,0.2566,1.1289,1.165
9.603000,-0.1524,0.2274,1.0998,1.133
9.608000,-0.1535,0.2216,1.0525,1.087
9.613000,-0.1453,0.1985,0.9073,0.940
9.618000,-0.1418,0.1665,0.8816,0.908
9.644000,-0.1431,0.1172,0.7782,0.800
9.646000,-0.1875,0.1034,0.6796,0.712
9.647000,-0.1951,0.1033,0.6683,0.704
9.648000,-0.2320,0.1410,0.6137,0.671
9.649000,-0.2205,0.1484,0.6078,0.663
9.650000,-0.1910,0.1843,0.6155,0.670
9.677000,-0.1809,0.1815,0.5437,0.601
9.679000,-0.1674,0.1930,0.5390,0.596
9.680000,-0.1588,0.2465,0.5339,0.609
9.681000,-0.1372,0.2750,0.6051,0.679
9.682000,-0.1049,0.3182,0.6408,0.723
9.683000,-0.0890,0.3176,0.7067,0.780
9.683000,-0.0750,0.3510,0.7655,0.845
9.695000,-0.0877,0.3237,0.8428,0.907
9.696000,-0.1018,0.2943,0.9649,1.014
9.699000,-0.1043,0.3105,1.0065,1.058
9.704000,-0.1302,0.2790,1.0719,1.115
9.720000,-0.1743,0.2151,1.0298,1.066
9.721000,-0.1978,0.1762,1.0289,1.062
9.722000,-0.2064,0.1622,1.0263,1.059
9.732000,-0.2755,0.1885,1.0281,1.081
9.733000,-0.2628,0.1498,1.0500,1.093
9.734000,-0.3308,0.1394,0.9751,1.039
9.752000,-0.4103,0.1379,0.8311,0.937
9.754000,-0.4427,0.1325,0.7421,0.874
9.755000,-0.4545,0.0476,0.6329,0.781
9.755000,-0.5505,0.0547,0.4686,0.725
9.778000,-0.5946,0.0518,0.3914,0.714
9.779000,-0.6158,0.0775,0.3114,0.694
9.779000,-0.6514,0.0573,0.2838,0.713
9.780000,-0.6539,-0.0001,0.2773,0.710
9.780000,-0.6498,0.0105,0.2128,0.684
9.785000,-0.6539,0.0461,0.1523,0.673
9.791000,-0.6197,0.0538,0.0963,0.629
9.795000,-0.6145,0.0722,0.0111,0.619
9.800000,-0.5553,0.0639,-0.1043,0.569
9.805000,-0.4982,0.0257,-0.1629,0.525
9.810000,-0.4014,0.0219,-0.1725,0.437
9.815000,-0.2720,-0.0170,-0.3041,0.408
9.820000,-0.1876,0.0059,-0.3446,0.392
9.836000,-0.1517,0.0381,-0.3792,0.410
9.837000,-0.0569,0.0363,-0.4073,0.413
9.838000,0.0035,0.0354,-0.4832,0.484
9.858000,0.0573,0.0819,-0.5647,0.574
9.859000,0.1018,0.1439,-0.5893,0.615
9.860000,0.1312,0.2212,-0.5770,0.632
9.861000,0.1587,0.3486,-0.5891,0.703
9.861000,0.2376,0.5440,-0.5385,0.801
9.865000,0.2551,0.7116,-0.5159,0.915
9.871000,0.3383,0.9269,-0.4903,1.102
9.877000,0.3426,1.1228,-0.4428,1.255
9.881000,0.3697,1.3866,-0.4444,1.502
9.886000,0.4198,1.6501,-0.4381,1.758
9.891000,0.4341,1.9084,-0.4461,2.007
9.896000,0.4955,2.1114,-0.4543,2.216
9.901000,0.5252,2.2665,-0.5190,2.384
9.906000,0.5299,2.5041,-0.5178,2.611
9.911000,0.5699,2.6222,-0.5475,2.739
9.916000,0.5727,2.7359,-0.5643,2.852
9.921000,0.5925,2.8500,-0.5732,2.967
9.926000,0.6138,2.8485,-0.6224,2.980
9.931000,0.6232,2.8884,-0.7829,3.057
9.936000,0.6073,2.9049,-0.9320,3.111
9.951000,0.6258,2.9329,-1.0188,3.167
9.952000,0.5795,2.9758,-0.9696,3.183
9.953000,0.5783,3.0204,-0.8538,3.192
9.972000,0.5060,3.1961,-0.7113,3.313
9.973000,0.4775,3.3923,-0.5520,3.470
9.974000,0.4393,3.5098,-0.3916,3.559
9.976000,0.3791,3.5787,-0.3917,3.620
9.977000,0.3364,3.7173,-0.2565,3.741
9.982000,0.3261,3.8633,-0.0146,3.877
9.987000,0.3367,4.0009,-0.0109,4.015
9.993000,0.3717,4.0370,0.0431,4.054
9.997000,0.3870,3.9991,0.0360,4.018
10.002000,0.4435,3.9542,0.0188,3.979
10.008000,0.5261,3.8881,-0.1479,3.926
10.012000,0.5455,3.7232,-0.3291,3.777
10.018000,0.5706,3.6498,-0.4969,3.727
10.023000,0.6505,3.5268,-0.5820,3.633
10.027000,0.7096,3.4246,-0.5461,3.540
10.033000,0.7448,3.2846,-0.6037,3.422
10.038000,0.7573,3.0682,-0.9332,3.295
10.042000,0.7609,2.8750,-1.2479,3.225
10.047000,0.7587,2.8244,-1.3988,3.242
10.053000,0.7437,2.6771,-1.5298,3.172
10.072000,0.6688,2.5014,-1.5537,3.020
10.074000,0.5961,2.3106,-1.5356,2.838
10.075000,0.5314,2.0426,-1.5509,2.619
10.076000,0.4395,1.7691,-1.4909,2.355
10.078000,0.3177,1.4950,-1.3637,2.048
10.083000,0.2421,1.1556,-1.2867,1.746
10.088000,0.1393,0.9568,-1.1935,1.536
10.099000,0.0867,0.7081,-1.0770,1.292
10.100000,0.0373,0.4419,-1.0058,1.099
10.104000,-0.0844,0.2801,-1.1486,1.185
10.112000,-0.1276,0.0911,-1.2168,1.227
10.113000,-0.1117,-0.1764,-1.2633,1.280
10.119000,-0.1381,-0.4161,-1.3694,1.438
10.125000,-0.1269,-0.5560,-1.4571,1.565
10.129000,-0.0902,-0.7244,-1.5313,1.696
10.134000,-0.0778,-0.8937,-1.6077,1.841
10.139000,-0.0277,-1.0722,-1.5641,1.897
10.144000,0.0436,-1.2611,-1.5294,1.983
10.149000,0.0952,-1.4520,-1.6152,2.174
10.154000,0.1178,-1.6162,-1.6101,2.284
10.171000,0.1687,-1.7227,-1.5864,2.348
10.171000,0.1910,-1.8612,-1.5633,2.438
10.173000,0.2406,-1.9586,-1.5382,2.502
10.196000,0.2961,-2.0438,-1.5201,2.564
10.198000,0.2858,-2.1407,-1.4667,2.611
10.199000,0.2734,-2.1405,-1.4166,2.581
10.200000,0.2381,-2.1425,-1.3877,2.564
10.201000,0.2445,-2.1874,-1.4072,2.612
10.202000,0.2235,-2.2069,-1.4205,2.634
10.205000,0.2194,-2.2323,-1.4025,2.645
10.211000,0.1676,-2.2658,-1.3756,2.656
10.215000,0.1094,-2.2131,-1.3259,2.582
10.220000,0.0597,-2.2035,-1.2783,2.548
10.225000,-0.0222,-2.1829,-1.2384,2.510
10.230000,-0.1051,-2.1085,-1.2219,2.439
10.235000,-0.1748,-2.0736,-1.1488,2.377
10.242000,-0.2160,-2.0265,-1.0622,2.298
10.245000,-0.2538,-1.9436,-1.0458,2.222
10.250000,-0.2667,-1.8725,-0.9525,2.118
10.255000,-0.3227,-1.7776,-0.9247,2.030
10.260000,-0.3178,-1.6754,-0.8559,1.908
10.265000,-0.3487,-1.5578,-0.7962,1.784
10.270000,-0.3914,-1.4055,-0.7525,1.642
10.289000,-0.3970,-1.2450,-0.6102,1.442
10.290000,-0.4108,-1.0513,-0.5183,1.242
10.291000,-0.4460,-0.9199,-0.4778,1.128
10.292000,-0.3935,-0.7958,-0.4578,0.999
10.295000,-0.3961,-0.6624,-0.4009,0.870
10.301000,-0.4056,-0.5566,-0.3788,0.786
10.306000,-0.3728,-0.4019,-0.3174,0.633
10.320000,-0.3399,-0.2809,-0.2367,0.500
10.321000,-0.3519,-0.1947,-0.1583,0.432
10.322000,-0.3327,-0.0633,-0.1226,0.360
10.334000,-0.3002,0.0620,-0.0780,0.316
10.336000,-0.2723,0.2110,-0.1085,0.361
10.336000,-0.2146,0.3144,-0.0670,0.386
10.346000,-0.1570,0.4344,-0.0301,0.463
10.348000,-0.1126,0.5614,-0.0647,0.576
10.352000,-0.0193,0.6369,-0.0920,0.644
10.356000,0.0394,0.7076,-0.1879,0.733
10.362000,0.0709,0.8129,-0.2450,0.852
10.366000,0.0954,0.9360,-0.2372,0.970
10.371000,0.1068,0.9754,-0.1800,0.998
10.387000,0.1839,1.0685,-0.1915,1.101
10.388000,0.2370,1.1628,-0.1652,1.198
10.389000,0.2528,1.2869,-0.1332,1.318
10.391000,0.2948,1.3463,-0.1852,1.391
10.410000,0.3441,1.3925,-0.1883,1.447
10.411000,0.3804,1.4650,-0.1296,1.519
10.412000,0.3430,1.5182,-0.1835,1.567
10.412000,0.3837,1.4936,-0.1938,1.554
10.417000,0.3700,1.5312,-0.1865,1.586
10.422000,0.4025,1.5423,-0.1234,1.599
10.428000,0.4071,1.5198,-0.1104,1.577
10.432000,0.4079,1.5032,-0.1620,1.566
10.437000,0.3933,1.4601,-0.1398,1.519
10.443000,0.3298,1.4993,-0.0797,1.537
10.447000,0.3021,1.5575,0.0509,1.587
10.452000,0.2510,1.6216,0.1972,1.653
10.457000,0.1944,1.6818,0.3286,1.725
10.463000,0.1414,1.6511,0.3763,1.699
10.468000,0.0942,1.5582,0.3486,1.599
10.472000,0.0849,1.4678,0.3220,1.505
10.490000,0.1075,1.3860,0.2340,1.410
10.491000,0.1056,1.2207,0.1716,1.237
10.492000,0.1582,1.0533,0.1691,1.078
10.497000,0.2034,0.9125,0.1238,0.943
10.498000,0.2460,0.7611,0.0534,0.802
10.503000,0.3123,0.6099,0.0392,0.686
10.519000,0.3786,0.4230,-0.0146,0.568
10.520000,0.4426,0.3249,-0.0324,0.550
10.521000,0.4902,0.2268,-0.0635,0.544
10.523000,0.5236,0.1061,-0.0922,0.542
10.534000,0.5216,-0.0073,-0.1653,0.547
10.535000,0.5474,-0.0943,-0.2245,0.599
10.539000,0.5126,-0.1944,-0.2243,0.592
10.547000,0.5130,-0.3136,-0.3013,0.673
10.549000,0.4946,-0.3346,-0.3321,0.683
10.554000,0.5149,-0.4070,-0.3458,0.742
10.560000,0.4878,-0.4901,-0.3724,0.785
10.564000,0.4395,-0.5146,-0.4323,0.803
10.569000,0.4177,-0.5271,-0.4417,0.805
10.574000,0.3675,-0.5873,-0.4760,0.841
10.579000,0.2826,-0.6176,-0.4852,0.835
10.584000,0.2180,-0.6742,-0.5145,0.876
10.589000,0.2086,-0.7103,-0.5701,0.934
10.605000,0.1549,-0.7750,-0.5776,0.979
10.606000,0.1345,-0.8252,-0.5563,1.004
10.607000,0.1058,-0.8515,-0.5131,1.000
10.632000,0.0961,-0.9290,-0.5160,1.067
10.633000,0.0710,-0.9886,-0.4993,1.110
10.634000,0.0433,-1.0552,-0.4317,1.141
10.635000,0.0325,-1.1050,-0.4002,1.176
10.635000,0.0166,-1.1355,-0.3618,1.192
10.635000,0.0092,-1.1517,-0.3260,1.197
10.639000,-0.0017,-1.1571,-0.3128,1.199
10.645000,0.0135,-1.1708,-0.3126,1.212
10.650000,-0.0143,-1.1858,-0.2512,1.212
10.655000,-0.0063,-1.1576,-0.2279,1.180
10.660000,-0.0126,-1.1199,-0.2211,1.142
10.665000,-0.0382,-1.0799,-0.2137,1.102
10.670000,-0.0494,-1.0184,-0.1844,1.036
10.675000,-0.0357,-1.0000,-0.1857,1.018
10.680000,-0.0794,-0.9231,-0.1530,0.939
10.685000,-0.0587,-0.8414,-0.1654,0.860
10.690000,-0.0405,-0.8209,-0.1570,0.837
10.695000,-0.0413,-0.7752,-0.1135,0.785
10.701000,-0.0720,-0.7189,-0.1568,0.739
10.705000,-0.0620,-0.6603,-0.1483,0.680
10.723000,-0.0497,-0.5970,-0.1467,0.617
10.724000,-0.0399,-0.5684,-0.1138,0.581
10.725000,-0.0074,-0.5028,-0.1802,0.534
10.751000,-0.0263,-0.4241,-0.1232,0.442
10.752000,-0.0129,-0.3730,-0.1082,0.389
10.753000,-0.0115,-0.3267,-0.0753,0.335
10.754000,0.0185,-0.2590,-0.0869,0.274
10.755000,0.0366,-0.1758,-0.0532,0.187
10.755000,0.0189,-0.1143,-0.0211,0.118
10.756000,0.0552,-0.0456,-0.0250,0.076
10.765000,0.0592,-0.0058,0.0198,0.063
10.766000,0.0562,0.0687,0.0392,0.097
10.771000,0.0677,0.1501,0.0237,0.166
10.777000,0.0495,0.2279,0.0225,0.234
10.781000,0.0470,0.2518,0.0354,0.259
10.786000,0.0602,0.3474,0.0710,0.360
10.793000,0.0698,0.4452,0.0969,0.461
10.796000,0.0364,0.5357,0.1273,0.552
10.802000,0.0568,0.5353,0.2032,0.575
10.807000,0.0820,0.5886,0.2408,0.641
10.811000,0.1000,0.6144,0.2651,0.677
10.817000,0.1239,0.6174,0.3002,0.698
10.822000,0.1309,0.7066,0.3292,0.790
10.841000,0.1619,0.7179,0.3343,0.808
10.843000,0.1738,0.7028,0.3057,0.786
10.844000,0.1655,0.7129,0.2942,0.789
10.844000,0.2339,0.7708,0.2887,0.856
10.848000,0.2224,0.8070,0.2198,0.865
10.852000,0.2123,0.8455,0.1716,0.888
10.857000,0.2097,0.8648,0.1165,0.897
10.870000,0.1966,0.8983,0.0591,0.921
10.871000,0.1943,0.9318,0.0414,0.953
10.872000,0.2172,0.9019,-0.0250,0.928
10.884000,0.2007,0.9007,-0.0672,0.925
10.885000,0.2105,0.8756,-0.1034,0.906
10.887000,0.2382,0.8110,-0.1181,0.853
10.898000,0.2637,0.7310,-0.1067,0.784
10.899000,0.2941,0.6618,-0.0668,0.727
10.902000,0.3031,0.6070,-0.0765,0.683
10.908000,0.3087,0.5642,-0.0471,0.645
10.913000,0.3109,0.5000,-0.0324,0.590
10.918000,0.2894,0.4214,-0.0504,0.514
10.923000,0.3016,0.3896,-0.0138,0.493
10.943000,0.2731,0.3470,-0.0097,0.442
10.946000,0.2435,0.3236,-0.0393,0.407
10.947000,0.2140,0.2787,-0.0224,0.352
10.947000,0.2002,0.2387,-0.0173,0.312
10.948000,0.1098,0.1999,-0.0169,0.229
10.952000,0.0971,0.1564,-0.0547,0.192
10.958000,0.0414,0.1070,-0.0432,0.123
10.970000,0.0024,0.1174,-0.0519,0.128
10.971000,-0.0151,0.0465,-0.0903,0.103
10.973000,-0.0671,0.0235,-0.1236,0.143
10.983000,-0.0881,-0.0581,-0.1555,0.188
10.985000,-0.1152,-0.1204,-0.1751,0.242
10.989000,-0.0980,-0.1850,-0.1898,0.283
10.997000,-0.1108,-0.2304,-0.1591,0.301
10.999000,-0.1070,-0.2805,-0.1928,0.357
11.004000,-0.0996,-0.3294,-0.1954,0.396
11.010000,-0.1006,-0.3877,-0.1909,0.444
11.013000,-0.1197,-0.4388,-0.1851,0.491
11.019000,-0.1148,-0.4814,-0.1614,0.521
11.024000,-0.1291,-0.5061,-0.1329,0.539
11.029000,-0.1028,-0.5414,-0.1201,0.564
11.034000,-0.1195,-0.5564,-0.0941,0.577
11.039000,-0.1027,-0.6133,-0.0957,0.629
11.054000,-0.1074,-0.6330,-0.0996,0.650
11.055000,-0.1420,-0.6838,-0.0413,0.700
11.056000,-0.1360,-0.6460,-0.0620,0.663
11.074000,-0.1539,-0.6573,-0.1162,0.685
11.076000,-0.1669,-0.6889,-0.0733,0.713
11.076000,-0.1643,-0.6918,-0.0185,0.711
11.077000,-0.1629,-0.6385,-0.0172,0.659
11.080000,-0.1830,-0.6223,-0.0050,0.649
11.085000,-0.1922,-0.6026,-0.0058,0.633
11.089000,-0.2098,-0.5686,-0.0424,0.608
11.094000,-0.2178,-0.5191,-0.0501,0.565
11.098000,-0.2568,-0.5127,-0.0529,0.576
11.103000,-0.2156,-0.4836,-0.0113,0.530
11.110000,-0.2320,-0.4425,-0.0283,0.500
11.114000,-0.2268,-0.4016,-0.0202,0.462
11.119000,-0.2251,-0.3858,-0.0216,0.447
11.124000,-0.1981,-0.3784,-0.0207,0.428
11.129000,-0.1509,-0.3495,-0.0127,0.381
11.135000,-0.1394,-0.3194,0.0085,0.349
11.140000,-0.1352,-0.2548,0.0069,0.288
11.155000,-0.1417,-0.1854,0.0351,0.236
11.156000,-0.1360,-0.1412,0.0168,0.197
11.156000,-0.1497,-0.0911,0.0821,0.194
11.180000,-0.1167,-0.0602,0.0386,0.137
11.181000,-0.0935,-0.0078,0.0416,0.103
11.181000,-0.0822,-0.0068,0.0851,0.119
11.182000,-0.0588,0.0347,0.1178,0.136
11.182000,-0.0499,0.0631,0.1574,0.177
11.186000,0.0130,0.0891,0.1886,0.209
11.191000,-0.0030,0.1544,0.1791,0.236
11.196000,-0.0045,0.1886,0.1660,0.251
11.201000,0.0061,0.2143,0.1588,0.267
11.205000,0.0059,0.2723,0.1899,0.332
11.211000,-0.0337,0.2955,0.1539,0.335
11.216000,-0.0636,0.3258,0.1502,0.364
11.221000,-0.0481,0.3670,0.1175,0.388
11.226000,-0.0387,0.3961,0.1076,0.412
11.231000,-0.0425,0.4180,0.1263,0.439
11.236000,-0.0273,0.4411,0.1114,0.456
11.241000,-0.0038,0.4331,0.1264,0.451
11.257000,0.0137,0.4335,0.1006,0.445
11.258000,0.0121,0.4387,0.0857,0.447
11.259000,0.0344,0.4821,0.1305,0.501
11.281000,0.0639,0.4848,0.1345,0.507
11.282000,0.0586,0.4672,0.1051,0.482
11.282000,0.0520,0.4747,0.0792,0.484
11.283000,0.0502,0.4703,0.0844,0.480
11.283000,0.0579,0.4647,0.1053,0.480
11.286000,0.0751,0.4376,0.0771,0.451
11.292000,0.1043,0.4297,0.0573,0.446
11.298000,0.1071,0.4409,0.0494,0.456
11.302000,0.0729,0.4270,0.0414,0.435
11.307000,0.0888,0.3736,0.0060,0.384
11.312000,0.0832,0.3837,0.0182,0.393
11.317000,0.0607,0.3795,-0.0031,0.384
11.322000,0.0742,0.3418,0.0091,0.350
11.328000,0.0686,0.3208,-0.0254,0.329
11.333000,0.0484,0.3143,-0.0204,0.319
11.338000,0.0379,0.2313,-0.0141,0.235
11.344000,0.0178,0.2416,-0.0533,0.248
11.347000,0.0025,0.2041,-0.1006,0.228
11.353000,-0.0250,0.1618,-0.0664,0.177
11.358000,-0.0191,0.1412,-0.0693,0.158
11.375000,-0.0502,0.0966,-0.0779,0.134
11.377000,-0.0551,0.0677,-0.0624,0.107
11.378000,-0.0697,0.0269,-0.0612,0.097
11.380000,-0.0580,0.0387,-0.0814,0.107
11.383000,-0.0472,0.0002,-0.0592,0.076
11.388000,-0.0532,-0.0403,-0.0977,0.118
11.393000,-0.0580,-0.1078,-0.1003,0.158
11.407000,-0.0318,-0.1321,-0.0919,0.164
11.408000,-0.0249,-0.1668,-0.0656,0.181
11.409000,-0.0632,-0.1941,-0.0420,0.208
11.421000,-0.0491,-0.1630,-0.0777,0.187
11.422000,-0.0494,-0.2437,-0.0904,0.265
11.423000,-0.0692,-0.2698,-0.0808,0.290
11.435000,-0.0593,-0.2719,-0.1105,0.299
11.436000,-0.0781,-0.3123,-0.1042,0.338
11.439000,-0.0861,-0.3119,-0.0728,0.332
11.446000,-0.0917,-0.3427,-0.0973,0.368
11.450000,-0.1164,-0.3448,-0.1206,0.383
11.454000,-0.0802,-0.3480,-0.1330,0.381
11.459000,-0.1051,-0.3656,-0.0975,0.393
11.475000,-0.0989,-0.3819,-0.1168,0.411
11.476000,-0.1346,-0.3516,-0.0512,0.380
11.476000,-0.1117,-0.3428,-0.0577,0.365
11.499000,-0.1091,-0.3090,-0.0593,0.333
11.500000,-0.1044,-0.3134,-0.0539,0.335
11.501000,-0.1427,-0.3178,-0.0640,0.354
11.501000,-0.1152,-0.3091,-0.0514,0.334
11.502000,-0.1057,-0.3051,-0.0365,0.325
11.505000,-0.1118,-0.2999,-0.0574,0.325
11.510000,-0.0701,-0.2780,-0.0508,0.291
11.514000,-0.1061,-0.2705,-0.0302,0.292
11.520000,-0.0969,-0.2367,-0.0011,0.256
11.525000,-0.0828,-0.2148,0.0088,0.230
11.530000,-0.0700,-0.1595,0.0151,0.175
11.535000,-0.0717,-0.1341,0.0154,0.153
11.540000,-0.0614,-0.1327,0.0669,0.161
11.545000,-0.0427,-0.0966,0.0490,0.116
11.550000,-0.0599,-0.0606,0.0347,0.092
11.555000,-0.0567,-0.0413,0.0647,0.095
11.562000,-0.0751,-0.0364,0.0372,0.091
11.565000,-0.0806,-0.0231,0.0452,0.095
11.570000,-0.0957,0.0328,0.0483,0.112
11.575000,-0.0890,0.0206,0.0631,0.111
11.593000,-0.0695,0.0512,0.0837,0.120
11.594000,-0.0762,0.0732,0.0816,0.134
11.595000,-0.0580,0.1070,0.0961,0.155
11.598000,-0.0520,0.1322,0.1012,0.174
11.601000,-0.0744,0.1583,0.1143,0.209
11.605000,-0.0633,0.1581,0.1237,0.211
11.622000,-0.0397,0.1639,0.1319,0.214
11.623000,-0.0199,0.1578,0.1352,0.209
11.624000,-0.0263,0.1708,0.1537,0.231
11.626000,-0.0270,0.1540,0.1339,0.206
11.637000,-0.0050,0.1753,0.1583,0.236
11.638000,-0.0045,0.1846,0.1301,0.226
11.641000,-0.0147,0.1890,0.0785,0.205
11.651000,0.0181,0.2349,0.0761,0.248
11.652000,-0.0006,0.2805,0.0537,0.286
11.656000,0.0059,0.2793,-0.0313,0.281
11.662000,-0.0080,0.3592,-0.0622,0.365
11.666000,0.0031,0.3265,-0.0954,0.340
11.672000,0.0419,0.3131,-0.1213,0.338
11.677000,0.0268,0.3044,-0.1353,0.334
11.681000,0.0570,0.2706,-0.1292,0.305
11.687000,0.0490,0.2501,-0.1460,0.294
11.692000,0.0578,0.1973,-0.1262,0.241
11.710000,0.0704,0.1673,-0.0948,0.205
11.711000,0.0998,0.1636,-0.0985,0.215
11.712000,0.1162,0.1587,-0.0548,0.204
11.713000,0.0633,0.1514,-0.0174,0.165
11.717000,0.0668,0.1681,-0.0412,0.186
11.722000,-0.0051,0.1417,-0.0365,0.146
11.727000,0.0305,0.1500,-0.0128,0.154
11.740000,0.0420,0.1547,0.0039,0.160
11.741000,0.0141,0.1511,-0.0210,0.153
11.742000,0.0064,0.1428,-0.0217,0.145
11.755000,0.0024,0.1416,0.0125,0.142
11.756000,-0.0122,0.1215,0.0207,0.124
11.757000,-0.0197,0.1062,-0.0205,0.110
11.768000,-0.0131,0.0970,-0.0371,0.105
11.769000,-0.0079,0.1140,-0.0460,0.123
11.773000,0.0244,0.0846,-0.0972,0.131
11.781000,0.0349,0.0388,-0.1088,0.121
11.782000,0.0501,-0.0054,-0.1297,0.139
11.788000,0.0618,-0.0279,-0.1730,0.186
11.793000,0.0615,-0.0443,-0.1413,0.160
11.808000,0.0576,-0.1009,-0.1147,0.163
11.809000,0.0739,-0.0751,-0.1396,0.175
11.810000,0.0499,-0.0827,-0.1348,0.166
11.836000,0.0630,-0.0690,-0.1123,0.146
11.837000,0.0499,-0.1052,-0.1541,0.193
11.838000,0.0346,-0.1388,-0.1375,0.198
11.838000,0.0360,-0.1305,-0.1211,0.182
11.839000,0.0171,-0.1187,-0.0987,0.155
11.840000,0.0009,-0.1676,-0.0848,0.188
11.844000,-0.0211,-0.1959,-0.0781,0.212
11.852000,-0.0465,-0.1717,-0.0986,0.203
11.854000,-0.0243,-0.1905,-0.0916,0.213
11.859000,-0.0369,-0.2090,-0.0999,0.235
11.866000,-0.0506,-0.1835,-0.0748,0.205
11.869000,-0.0631,-0.1879,-0.0915,0.218
11.874000,-0.0814,-0.1804,-0.0960,0.220
11.879000,-0.0558,-0.1670,-0.0471,0.182
11.884000,-0.0541,-0.1513,-0.0578,0.171
11.889000,-0.0572,-0.1144,-0.0400,0.134
11.894000,-0.0307,-0.1312,-0.0497,0.144
11.900000,-0.0496,-0.1466,-0.0378,0.159
11.905000,-0.0125,-0.1299,-0.0093,0.131
11.909000,-0.0029,-0.0884,-0.0536,0.103
11.927000,-0.0220,-0.1387,-0.0344,0.145
11.928000,0.0019,-0.1197,-0.0286,0.123
11.929000,0.0125,-0.1483,-0.0181,0.150
11.930000,0.0149,-0.1375,-0.0196,0.140
11.934000,0.0091,-0.1198,0.0168,0.121
11.939000,0.0021,-0.1164,0.0184,0.118
11.957000,0.0025,-0.0857,-0.0216,0.088
11.959000,-0.0350,-0.0542,0.0097,0.065
11.959000,-0.0330,-0.0561,0.0490,0.081
11.960000,0.0164,-0.0734,0.0345,0.083
11.972000,0.0166,-0.0585,0.0295,0.068
11.973000,0.0096,-0.0260,0.0622,0.068
11.975000,-0.0210,-0.0292,0.0719,0.080
11.986000,0.0210,-0.0242,0.0801,0.086
11.988000,0.0497,-0.0394,0.0702,0.095
11.991000,0.0175,-0.0449,0.0922,0.104
11.997000,0.0272,-0.0230,0.1436,0.148
12.000000,0.0334,-0.0168,0.1483,0.153
12.006000,0.0123,-0.0060,0.1409,0.142
12.011000,-0.0050,0.0238,0.1597,0.162
12.027000,0.0145,-0.0285,0.1451,0.149
12.029000,0.0066,0.0073,0.0893,0.090
12.029000,0.0130,0.0608,0.0648,0.090
12.032000,0.0360,0.0389,0.0738,0.091
12.036000,0.0243,0.0612,0.0282,0.072
12.041000,0.0267,0.0858,0.0541,0.105
12.057000,0.0268,0.0887,0.0301,0.097
12.058000,0.0484,0.1129,-0.0078,0.123
12.059000,0.0638,0.1370,-0.0145,0.152
12.061000,0.0600,0.0754,-0.0390,0.104
12.071000,0.0871,0.1033,-0.0421,0.142
12.072000,0.1164,0.0978,-0.0440,0.158
12.077000,0.0933,0.1208,-0.0793,0.172
12.085000,0.1097,0.0830,-0.0856,0.162
12.086000,0.0976,0.0978,-0.0814,0.160
12.092000,0.0878,0.0638,-0.0952,0.144
12.097000,0.0852,0.0598,-0.0758,0.129
12.102000,0.0899,0.0855,-0.0673,0.141
12.106000,0.0838,0.1050,-0.0792,0.156
12.112000,0.0516,0.0805,-0.0305,0.100
12.128000,0.0955,0.0728,-0.0144,0.121
12.129000,0.0928,0.0533,-0.0268,0.110
12.130000,0.0735,0.0613,0.0084,0.096
12.133000,0.0650,0.0573,-0.0194,0.089
12.138000,0.0603,0.0676,-0.0385,0.098
12.156000,0.0427,0.0433,-0.0028,0.061
12.157000,0.0526,0.0370,-0.0182,0.067
12.158000,0.0351,0.0581,-0.0084,0.068
12.159000,0.0334,0.0707,-0.0545,0.095
12.170000,0.0256,0.0617,-0.0407,0.078
12.171000,0.0049,0.0339,-0.0399,0.053
12.173000,0.0151,0.0099,-0.0629,0.065
12.177000,0.0193,-0.0104,-0.0513,0.056
12.182000,0.0413,-0.0269,-0.0327,0.059
12.188000,0.0240,-0.0172,-0.0331,0.044
12.193000,0.0032,-0.0242,-0.0452,0.051
12.197000,0.0216,-0.0335,-0.0798,0.089
12.203000,0.0317,-0.0748,-0.0489,0.095
12.208000,0.0214,-0.0623,-0.0301,0.072
12.214000,0.0278,-0.0582,-0.0362,0.074
12.218000,0.0128,-0.0518,-0.0174,0.056
12.223000,0.0123,-0.0597,-0.0272,0.067
12.228000,0.0142,-0.0497,-0.0142,0.054
12.233000,0.0053,-0.0588,-0.0215,0.063
12.238000,0.0155,-0.0951,-0.0382,0.104
12.243000,0.0126,-0.0849,-0.0250,0.089
12.269000,0.0395,-0.0961,-0.0190,0.106
12.270000,-0.0170,-0.1096,0.0107,0.111
12.271000,-0.0480,-0.0921,0.0058,0.104
12.272000,-0.0076,-0.0712,0.0198,0.074
12.273000,0.0088,-0.0837,-0.0375,0.092
12.273000,0.0049,-0.0902,-0.0064,0.091
12.278000,-0.0051,-0.1263,0.0182,0.128
12.302000,0.0110,-0.0457,0.0178,0.050
12.303000,0.0293,-0.0584,0.0424,0.078
12.304000,-0.0082,-0.0888,0.0452,0.100
12.305000,-0.0075,-0.0797,0.0411,0.090
12.305000,-0.0080,-0.0577,0.0310,0.066
12.309000,0.0011,-0.0205,0.0139,0.025
12.317000,0.0053,0.0177,0.0030,0.019
12.320000,-0.0286,-0.0276,0.0161,0.043
12.324000,-0.0110,-0.0025,0.0148,0.019
12.329000,0.0325,-0.0084,-0.0303,0.045
12.344000,0.0140,-0.0001,-0.0323,0.035
12.346000,-0.0008,-0.0191,0.0406,0.045
12.346000,-0.0058,-0.0273,-0.0284,0.040
12.350000,0.0320,-0.0189,0.0194,0.042
12.353000,0.0314,-0.0639,0.0335,0.079
12.358000,0.0534,-0.0587,0.0866,0.117
12.367000,0.0634,-0.1057,0.0785,0.146
12.369000,0.0699,-0.1085,0.1284,0.182
12.375000,0.0620,-0.1219,0.1764,0.223
12.380000,0.0531,-0.1339,0.1717,0.224
12.384000,0.0158,-0.1127,0.1821,0.215
12.390000,0.0037,-0.1094,0.1912,0.220
12.395000,0.0096,-0.0907,0.1124,0.145
12.399000,-0.0665,-0.0461,0.0415,0.091
12.405000,-0.0684,0.0338,0.0307,0.082
12.409000,-0.0656,0.0406,-0.0533,0.094
12.414000,-0.0570,0.0378,-0.1091,0.129
12.420000,-0.0365,0.0469,-0.1476,0.159
12.425000,-0.0339,0.0595,-0.1962,0.208
12.431000,-0.0065,0.0446,-0.2243,0.229
12.435000,-0.0006,0.0478,-0.2180,0.223
12.440000,0.0017,0.0342,-0.1740,0.177
12.445000,-0.0042,-0.0112,-0.1475,0.148
12.450000,0.0125,-0.0385,-0.0968,0.105
12.455000,0.0160,-0.0512,-0.0397,0.067
12.460000,0.0562,-0.0864,0.0378,0.110
12.478000,0.0282,-0.1390,0.1038,0.176
12.481000,0.0040,-0.0879,0.1454,0.170
12.482000,0.0311,-0.0729,0.1914,0.207
12.482000,0.0162,-0.0603,0.2016,0.211
12.485000,0.0371,-0.0206,0.2110,0.215
12.490000,0.0139,0.0010,0.1876,0.188
12.496000,0.0050,0.0081,0.1969,0.197
12.511000,0.0223,0.0472,0.1531,0.162
12.512000,0.0275,0.0587,0.0923,0.113
12.512000,-0.0113,0.0190,0.0325,0.039
12.525000,-0.0166,0.0520,-0.0646,0.085
12.526000,0.0117,0.0396,-0.0978,0.106
12.527000,0.0172,0.0297,-0.0905,0.097
12.539000,0.0027,0.0578,-0.0928,0.109
12.541000,0.0084,0.0454,-0.1202,0.129
12.541000,0.0284,0.0212,-0.1464,0.151
12.550000,0.0245,0.0031,-0.1359,0.138
12.552000,0.0231,-0.0053,-0.1328,0.135
12.556000,0.0192,-0.0172,-0.1194,0.122
12.562000,0.0486,-0.0040,-0.0945,0.106
12.578000,0.0422,-0.0266,-0.0534,0.073
12.580000,0.0336,-0.0169,-0.0280,0.047
12.581000,0.0524,-0.0394,-0.0193,0.068
12.582000,0.0270,-0.0225,-0.0001,0.035
12.587000,0.0065,-0.0414,0.0300,0.052
12.592000,0.0395,-0.0197,0.0232,0.050
12.611000,0.0200,-0.0338,0.0155,0.042
12.612000,0.0149,-0.0158,-0.0133,0.025
12.613000,0.0335,0.0032,-0.0048,0.034
12.613000,-0.0134,0.0150,-0.0284,0.035
12.624000,-0.0255,0.0018,-0.0373,0.045
12.625000,0.0136,-0.0090,-0.0853,0.087
12.629000,0.0014,-0.0055,-0.1068,0.107
12.637000,-0.0120,0.0028,-0.1424,0.143
12.638000,-0.0133,0.0074,-0.1420,0.143
12.643000,0.0092,-0.0082,-0.1359,0.136
12.649000,0.0043,-0.0023,-0.1144,0.114
12.653000,-0.0137,-0.0154,-0.1156,0.117
12.658000,0.0066,-0.0023,-0.0957,0.096
12.663000,0.0135,0.0012,-0.0938,0.095
12.668000,0.0217,0.0082,-0.0459,0.051
12.673000,0.0083,-0.0109,0.0027,0.014
12.678000,-0.0121,-0.0038,0.0307,0.033
12.693000,-0.0121,-0.0098,0.0277,0.032
12.694000,-0.0061,-0.0228,0.0473,0.053
12.695000,-0.0239,-0.0382,0.0361,0.058
12.719000,0.0096,-0.0012,0.0560,0.057
12.720000,-0.0012,-0.0049,0.0462,0.047
12.720000,-0.0059,0.0295,0.0046,0.030
12.721000,-0.0249,0.0315,-0.0329,0.052
12.721000,-0.0069,0.0513,-0.0240,0.057
12.723000,-0.0105,0.0056,-0.0520,0.053
12.729000,-0.0045,-0.0052,-0.0241,0.025
12.734000,0.0265,-0.0089,0.0248,0.037
12.739000,0.0263,-0.0125,-0.0041,0.029
12.744000,0.0417,0.0029,0.0040,0.042
12.749000,0.0286,-0.0115,0.0453,0.055
12.754000,0.0061,-0.0139,0.0292,0.033
12.759000,-0.0174,-0.0175,0.0144,0.029
12.766000,-0.0360,0.0074,0.0057,0.037
12.769000,-0.0282,0.0084,-0.0066,0.030
12.774000,-0.0040,0.0106,-0.0082,0.014
12.779000,-0.0085,0.0009,0.0106,0.014
12.784000,-0.0049,0.0233,0.0221,0.033
12.789000,0.0034,0.0218,0.0433,0.049
12.795000,0.0140,0.0061,0.0252,0.029
12.809000,0.0019,0.0368,-0.0305,0.048
12.810000,0.0197,0.0186,-0.0538,0.060
12.810000,0.0384,-0.0363,-0.0447,0.069
12.831000,0.0012,-0.0207,-0.0346,0.040
12.832000,0.0105,-0.0194,-0.0401,0.046
12.833000,0.0317,0.0127,-0.0859,0.092
12.833000,0.0243,0.0528,-0.0935,0.110
12.834000,0.0145,0.0333,-0.0715,0.080
12.840000,0.0061,0.0282,-0.0628,0.069
12.845000,-0.0142,0.0184,-0.0935,0.096
12.850000,-0.0083,0.0181,-0.0599,0.063
12.855000,-0.0036,0.0155,-0.0633,0.065
12.860000,-0.0168,0.0023,-0.0657,0.068
12.865000,0.0273,-0.0073,-0.0644,0.070
12.870000,0.0210,-0.0382,-0.0311,0.054
12.875000,0.0183,0.0096,-0.0385,0.044
12.892000,0.0262,0.0249,-0.0422,0.056
12.893000,0.0092,-0.0051,-0.0433,0.045
12.893000,0.0184,-0.0122,-0.0634,0.067
12.895000,0.0206,-0.0181,-0.0214,0.035
12.912000,0.0369,-0.0537,-0.0094,0.066
12.913000,0.0364,-0.0462,-0.0487,0.076
12.913000,0.0086,-0.0150,-0.0591,0.062
12.917000,0.0167,-0.0197,-0.0553,0.061
12.921000,0.0236,-0.0351,-0.0419,0.060
12.926000,0.0032,-0.0278,-0.0514,0.058
12.932000,0.0127,-0.0419,-0.0299,0.053
12.936000,0.0103,-0.0416,-0.0122,0.045
12.941000,0.0066,-0.0188,-0.0459,0.050
12.948000,0.0065,-0.0377,-0.0448,0.059
12.952000,-0.0079,-0.0268,-0.0295,0.041
12.956000,0.0026,-0.0218,-0.0239,0.033
12.961000,0.0106,-0.0442,-0.0137,0.048
12.966000,0.0127,-0.0297,-0.0129,0.035
12.972000,0.0324,-0.0378,-0.0097,0.051
12.977000,0.0081,-0.0292,-0.0397,0.050
12.982000,0.0148,-0.0064,-0.0301,0.034
12.986000,0.0465,0.0173,0.0161,0.052
12.992000,0.0173,0.0136,-0.0162,0.027
12.998000,0.0537,-0.0199,-0.0079,0.058
13.002000,0.0281,-0.0340,-0.0423,0.061
13.007000,0.0193,-0.0124,-0.0159,0.028
13.012000,0.0285,-0.0160,-0.0455,0.056
13.030000,0.0079,-0.0266,-0.0405,0.049
13.031000,0.0113,-0.0265,-0.0474,0.055
13.031000,-0.0092,-0.0192,-0.0438,0.049
13.032000,-0.0285,-0.0155,-0.0545,0.063
13.037000,0.0259,0.0048,-0.0816,0.086
13.042000,0.0122,-0.0154,-0.0789,0.081
13.059000,-0.0074,0.0132,-0.0584,0.060
13.060000,-0.0091,0.0321,-0.0571,0.066
13.061000,0.0105,0.0295,-0.0701,0.077
13.063000,-0.0079,0.0375,-0.0604,0.072
13.073000,0.0059,0.0574,-0.0615,0.084
13.075000,0.0136,0.0557,-0.0578,0.081
13.079000,0.0178,0.0315,-0.0753,0.084
13.088000,0.0362,0.0478,-0.0297,0.067
13.089000,0.0272,0.0450,-0.0082,0.053
13.093000,0.0456,0.0185,-0.0367,0.061
13.100000,0.0318,0.0028,-0.0341,0.047
13.103000,0.0312,0.0194,-0.0066,0.037
13.108000,0.0379,-0.0105,0.0278,0.048
13.113000,0.0255,-0.0307,0.0144,0.042
13.128000,-0.0083,-0.0507,0.0592,0.078
13.129000,0.0247,-0.0087,0.0786,0.083
13.129000,0.0123,-0.0384,0.0764,0.086
13.155000,0.0118,-0.0559,0.0980,0.113
13.156000,0.0171,-0.0946,0.0934,0.134
13.157000,0.0024,-0.0416,0.0770,0.088
13.157000,-0.0300,-0.0342,0.0491,0.067
13.158000,-0.0218,0.0313,-0.0164,0.041
13.158000,0.0125,0.0618,-0.0503,0.081
13.169000,-0.0627,0.0683,-0.1027,0.138
13.170000,-0.0366,0.0998,-0.1356,0.172
13.174000,0.0036,0.0882,-0.2442,0.260
13.179000,0.0147,0.0732,-0.2097,0.223
13.184000,0.0248,0.0630,-0.1603,0.174
13.189000,0.0695,0.0173,-0.1851,0.199
13.194000,0.0759,-0.0054,-0.1544,0.172
13.199000,0.0704,-0.0209,-0.0839,0.112
13.204000,0.0593,-0.0778,-0.0308,0.102
13.209000,0.0375,-0.0807,0.0061,0.089
13.216000,0.0173,-0.1169,0.0260,0.121
13.219000,0.0245,-0.0935,0.0636,0.116
13.224000,-0.0019,-0.0749,0.1058,0.130
13.229000,-0.0292,-0.0708,0.1015,0.127
13.244000,-0.0126,-0.0263,0.0999,0.104
13.245000,-0.0105,-0.0285,0.1105,0.115
13.246000,-0.0085,-0.0390,0.1084,0.115
13.271000,-0.0042,-0.0256,0.0947,0.098
13.272000,-0.0238,0.0280,0.0719,0.081
13.273000,-0.0101,-0.0019,0.0401,0.041
13.273000,-0.0060,-0.0186,0.0029,0.020
13.274000,-0.0353,0.0088,-0.0399,0.054
13.275000,-0.0062,0.0384,-0.1238,0.130
13.280000,0.0144,0.0309,-0.1300,0.134
13.285000,0.0100,-0.0109,-0.1467,0.147
13.290000,-0.0193,-0.0132,-0.1518,0.154
13.295000,0.0206,-0.0143,-0.1857,0.187
13.300000,0.0270,-0.0060,-0.1091,0.113
13.305000,0.0286,-0.0107,-0.0857,0.091
13.310000,0.0232,-0.0474,-0.0684,0.086
13.317000,0.0202,-0.0648,-0.0658,0.095
13.321000,0.0408,-0.0382,-0.0278,0.062
13.326000,0.0223,-0.0616,0.0229,0.069
13.331000,0.0289,-0.0647,0.0375,0.080
13.335000,0.0235,-0.0523,0.0081,0.058
13.341000,0.0146,-0.0649,0.0004,0.067
13.347000,0.0320,-0.0442,0.0439,0.070
13.363000,-0.0007,-0.0296,0.0777,0.083
13.364000,0.0228,-0.0235,0.0556,0.065
13.365000,0.0329,-0.0056,0.0232,0.041
13.369000,-0.0034,-0.0317,0.0067,0.033
13.370000,-0.0120,0.0077,-0.0369,0.040
13.376000,-0.0348,0.0147,-0.0338,0.051
13.393000,-0.0101,-0.0164,-0.0876,0.090
13.394000,0.0109,0.0062,-0.0817,0.083
13.395000,0.0116,0.0370,-0.0485,0.062
13.396000,0.0074,-0.0073,-0.0691,0.070
13.407000,0.0198,-0.0203,-0.1027,0.107
13.408000,0.0228,0.0178,-0.1266,0.130
13.412000,0.0115,0.0022,-0.0946,0.095
13.421000,0.0004,-0.0169,-0.0987,0.100
13.422000,0.0297,-0.0167,-0.1018,0.107
13.427000,0.0363,-0.0261,-0.1050,0.114
13.433000,0.0310,-0.0260,-0.0453,0.061
13.437000,0.0578,-0.0460,-0.0100,0.075
13.442000,0.0547,-0.0587,0.0062,0.080
13.447000,0.0386,-0.0262,-0.0050,0.047
13.463000,0.0286,-0.0367,-0.0018,0.047
13.464000,0.0126,-0.0400,0.0179,0.046
13.465000,0.0183,-0.0219,0.0614,0.068
13.490000,0.0262,-0.0206,0.0428,0.054
13.491000,-0.0146,0.0294,0.0482,0.058
13.491000,0.0054,-0.0077,0.0158,0.018
13.493000,0.0120,-0.0053,0.0119,0.018
13.494000,-0.0241,0.0089,0.0484,0.055
13.494000,-0.0220,-0.0007,0.0204,0.030
13.503000,0.0371,-0.0315,0.0165,0.051
13.504000,0.0305,-0.0230,0.0601,0.071
13.508000,0.0121,-0.0181,0.0299,0.037
13.513000,-0.0119,-0.0062,0.0249,0.028
13.517000,0.0106,0.0080,-0.0122,0.018
13.523000,-0.0015,0.0008,-0.0146,0.015
13.528000,0.0054,0.0066,-0.0643,0.065
13.533000,0.0087,0.0255,-0.0591,0.065
13.538000,0.0024,0.0264,-0.0588,0.064
13.543000,0.0151,0.0167,-0.0597,0.064
13.548000,0.0408,0.0224,-0.0226,0.052
13.569000,0.0317,-0.0051,-0.0097,0.034
13.570000,0.0179,0.0104,-0.0478,0.052
13.571000,0.0351,0.0292,-0.0678,0.082
13.573000,0.0475,-0.0007,-0.0210,0.052
13.575000,0.0467,-0.0162,-0.0102,0.050
13.610000,0.0436,-0.0066,-0.0422,0.061
13.611000,0.0369,0.0112,-0.0489,0.062
13.612000,0.0506,0.0194,-0.0865,0.102
13.613000,0.0488,0.0263,-0.0690,0.088
13.613000,0.0505,0.0236,-0.0269,0.062
13.614000,0.0427,-0.0158,-0.0623,0.077
13.615000,0.0397,0.0032,-0.0700,0.081
13.617000,0.0334,0.0185,-0.0432,0.058
13.630000,0.0234,0.0254,-0.0536,0.064
13.631000,0.0087,0.0097,-0.0378,0.040
13.632000,0.0226,0.0119,-0.0305,0.040
13.635000,0.0211,0.0070,-0.0270,0.035
13.640000,0.0456,-0.0168,-0.0352,0.060
13.643000,0.0131,-0.0168,-0.0279,0.035
13.656000,-0.0228,-0.0096,-0.0351,0.043
13.657000,-0.0156,-0.0155,-0.0159,0.027
13.659000,0.0047,-0.0523,-0.0323,0.062
13.664000,0.0105,-0.0686,0.0000,0.069
13.670000,0.0186,-0.0479,0.0108,0.053
13.674000,-0.0031,-0.0037,-0.0309,0.031
13.679000,-0.0057,-0.0239,-0.0234,0.034
13.693000,0.0215,-0.0262,0.0196,0.039
13.694000,0.0141,-0.0439,0.0408,0.062
13.695000,-0.0052,-0.0258,0.0072,0.027
13.721000,0.0517,-0.0173,-0.0118,0.056
13.722000,0.0320,-0.0398,0.0145,0.053
13.722000,0.0268,-0.0669,0.0085,0.073
13.723000,0.0240,-0.0272,-0.0023,0.036
13.723000,0.0010,-0.0389,-0.0117,0.041
13.725000,0.0174,-0.0327,-0.0163,0.041
13.730000,0.0288,-0.0218,-0.0304,0.047
13.735000,-0.0074,-0.0407,-0.0171,0.045
13.740000,-0.0065,-0.0226,-0.0192,0.030
13.745000,-0.0044,-0.0320,-0.0355,0.048
13.750000,0.0179,-0.0306,-0.0030,0.036
13.755000,0.0138,-0.0209,-0.0372,0.045
13.760000,0.0039,-0.0267,-0.0320,0.042
13.767000,0.0073,-0.0432,-0.0435,0.062
13.770000,0.0190,-0.0418,-0.0454,0.065
13.776000,0.0162,-0.0178,-0.0437,0.050
13.781000,-0.0149,-0.0165,-0.0064,0.023
13.794000,0.0100,-0.0307,0.0008,0.032
13.795000,0.0074,-0.0246,-0.0040,0.026
13.796000,-0.0202,-0.0256,0.0031,0.033
13.817000,-0.0155,-0.0326,-0.0041,0.036
13.817000,-0.0086,0.0115,-0.0219,0.026
13.818000,0.0006,-0.0112,-0.0017,0.011
13.818000,-0.0071,0.0055,-0.0124,0.015
13.822000,0.0351,0.0079,-0.0136,0.038
13.826000,0.0532,0.0114,-0.0111,0.055
13.831000,-0.0037,-0.0089,-0.0215,0.024
13.837000,-0.0032,0.0220,-0.0200,0.030
13.842000,0.0425,-0.0209,-0.0434,0.064
13.846000,0.0202,-0.0101,-0.0450,0.050
13.853000,0.0089,0.0446,-0.0384,0.059
13.857000,0.0264,0.0061,-0.0531,0.060
13.862000,-0.0037,-0.0011,-0.0616,0.062
13.877000,0.0055,-0.0321,-0.0582,0.067
13.878000,0.0338,0.0037,-0.0429,0.055
13.879000,0.0370,-0.0119,-0.0147,0.042
13.882000,0.0247,0.0011,0.0096,0.027
13.899000,0.0385,-0.0227,0.0099,0.046
13.900000,0.0189,-0.0439,0.0669,0.082
13.901000,0.0064,-0.0424,0.1020,0.111
13.902000,-0.0013,0.0042,0.0785,0.079
13.907000,-0.0184,-0.0374,0.0696,0.081
13.912000,0.0179,-0.0276,0.0823,0.089
13.918000,0.0029,-0.0286,0.0712,0.077
13.923000,0.0165,-0.0450,0.0842,0.097
13.928000,-0.0341,0.0135,0.0190,0.041
13.933000,-0.0012,0.0324,-0.0253,0.041
13.938000,0.0041,0.0320,-0.0819,0.088
13.943000,0.0164,0.0685,-0.1342,0.152
13.948000,0.0215,0.0370,-0.1849,0.190
13.952000,0.0327,0.0591,-0.1855,0.197
13.958000,0.0487,0.0514,-0.1791,0.193
13.962000,0.0420,-0.0227,-0.2029,0.208
13.969000,0.0533,-0.0404,-0.1747,0.187
13.973000,0.0479,-0.0746,-0.1281,0.156
13.978000,0.0523,-0.0919,-0.0871,0.137
13.998000,0.0507,-0.0781,-0.0610,0.111
14.000000,0.0540,-0.0645,-0.0246,0.088
14.001000,0.0430,-0.0854,0.0256,0.099
14.001000,-0.0130,-0.0658,0.0006,0.067
14.004000,-0.0177,-0.0320,0.0720,0.081
14.009000,-0.0178,-0.0354,0.1240,0.130
14.013000,-0.0121,-0.0185,0.1177,0.120
14.028000,-0.0136,0.0161,0.1226,0.124
14.029000,-0.0023,0.0100,0.1159,0.116
14.030000,0.0198,-0.0186,0.0883,0.092
14.042000,-0.0012,0.0147,0.0281,0.032
14.043000,-0.0482,0.0122,0.0234,0.055
14.044000,-0.0414,0.0476,-0.0085,0.064
14.050000,-0.0015,0.0211,-0.0841,0.087
14.057000,0.0060,0.0114,-0.1247,0.125
14.059000,0.0409,-0.0030,-0.1367,0.143
14.064000,0.0292,0.0136,-0.1462,0.150
14.069000,0.0058,0.0241,-0.1251,0.128
14.075000,0.0123,0.0156,-0.1484,0.150
14.079000,0.0153,-0.0190,-0.1183,0.121
14.096000,0.0372,-0.0320,-0.0864,0.099
14.097000,0.0330,-0.0270,-0.0536,0.069
14.098000,0.0432,-0.0280,-0.0177,0.054
14.122000,0.0616,-0.0314,0.0036,0.069
14.123000,0.0466,-0.0478,-0.0038,0.067
14.124000,0.0495,-0.0617,-0.0135,0.080
14.125000,0.0181,-0.0743,0.0363,0.085
14.125000,0.0165,-0.0489,0.0263,0.058
14.126000,-0.0005,-0.0390,0.0438,0.059
14.130000,0.0065,-0.0233,0.0494,0.055
14.137000,0.0085,-0.0054,0.0350,0.036
14.140000,0.0058,-0.0304,0.0245,0.039
14.145000,-0.0101,-0.0147,0.0260,0.032
14.151000,-0.0032,-0.0171,0.0322,0.037
14.155000,-0.0295,0.0209,-0.0210,0.042
14.160000,-0.0224,0.0029,-0.0701,0.074
14.165000,0.0167,-0.0233,-0.0476,0.056
14.171000,0.0126,0.0124,-0.0977,0.099
14.175000,0.0158,-0.0115,-0.1333,0.135
14.180000,-0.0012,-0.0341,-0.1331,0.137
14.195000,0.0139,-0.0433,-0.0962,0.106
14.196000,0.0253,-0.0240,-0.0408,0.054
14.196000,0.0344,-0.0393,-0.0833,0.098
14.219000,0.0185,-0.0153,-0.0922,0.095
14.220000,0.0266,-0.0331,-0.0620,0.075
14.221000,0.0180,-0.0436,-0.0238,0.053
14.221000,0.0188,-0.0243,-0.0038,0.031
14.222000,0.0352,-0.0063,0.0066,0.036
14.226000,0.0526,-0.0182,0.0597,0.082
14.231000,0.0117,-0.0170,0.0579,0.061
14.236000,-0.0005,0.0092,0.0525,0.053
14.241000,0.0314,0.0245,0.0555,0.068
14.246000,0.0131,0.0064,0.0337,0.037
14.252000,-0.0015,-0.0020,0.0644,0.064
14.257000,0.0043,-0.0318,0.0248,0.041
14.262000,0.0064,-0.0387,0.0057,0.040
14.266000,0.0024,-0.0598,0.0401,0.072
14.272000,-0.0217,-0.0558,0.0387,0.071
14.277000,0.0185,-0.0684,0.0160,0.073
14.282000,0.0300,-0.0169,0.0031,0.035
14.286000,0.0215,-0.0383,0.0034,0.044
14.292000,0.0094,-0.0048,-0.0402,0.042
14.297000,0.0094,-0.0204,-0.0431,0.049
14.316000,0.0083,-0.0120,-0.0628,0.064
14.318000,0.0165,0.0081,-0.0942,0.096
14.319000,0.0008,-0.0110,-0.0744,0.075
14.319000,0.0090,-0.0003,-0.0679,0.068
14.322000,0.0314,0.0198,-0.0580,0.069
14.327000,0.0192,0.0100,-0.0506,0.055
14.333000,0.0259,-0.0008,-0.0480,0.055
14.348000,0.0244,-0.0163,-0.0228,0.037
14.349000,0.0323,-0.0459,-0.0154,0.058
14.350000,0.0296,-0.0124,-0.0211,0.038
14.362000,0.0269,-0.0314,-0.0020,0.041
14.364000,0.0407,-0.0312,-0.0162,0.054
14.364000,0.0416,-0.0049,-0.0266,0.050
14.367000,0.0435,-0.0287,-0.0287,0.060
14.377000,0.0287,-0.0274,-0.0200,0.044
14.378000,0.0176,-0.0070,-0.0460,0.050
14.383000,0.0067,0.0024,-0.0742,0.075
14.388000,-0.0042,-0.0131,-0.0392,0.042
14.393000,-0.0137,-0.0095,-0.0296,0.034
14.398000,0.0150,-0.0167,-0.0427,0.048
14.404000,0.0245,-0.0167,-0.0676,0.074
14.408000,0.0314,-0.0261,-0.0473,0.062
14.413000,0.0134,-0.0058,-0.0343,0.037
14.432000,0.0180,-0.0154,-0.0688,0.073
14.433000,0.0215,-0.0129,-0.0724,0.077
14.434000,0.0249,0.0132,-0.0356,0.045
14.434000,0.0010,-0.0250,-0.0144,0.029
14.459000,0.0046,0.0001,-0.0208,0.021
14.459000,0.0176,-0.0273,0.0227,0.040
14.460000,0.0080,-0.0320,0.0220,0.040
14.460000,0.0175,-0.0211,0.0119,0.030
14.461000,0.0126,-0.0281,0.0067,0.032
14.464000,0.0470,-0.0280,0.0193,0.058
14.470000,0.0680,-0.0421,0.0497,0.094
14.473000,0.0342,-0.0169,-0.0009,0.038
14.479000,0.0269,-0.0300,-0.0295,0.050
14.484000,0.0125,-0.0239,-0.0069,0.028
14.488000,-0.0030,-0.0262,-0.0116,0.029
14.494000,-0.0042,-0.0593,-0.0045,0.060
14.499000,0.0268,-0.0233,-0.0438,0.056
14.504000,0.0040,0.0100,-0.0316,0.033
14.509000,0.0098,-0.0222,-0.0302,0.039
14.514000,0.0037,-0.0102,-0.0265,0.029
14.534000,0.0059,-0.0031,-0.0347,0.035
14.535000,0.0247,-0.0044,-0.0891,0.093
14.536000,0.0138,-0.0234,-0.0565,0.063
14.536000,0.0148,-0.0019,-0.0515,0.054
14.541000,0.0003,-0.0091,-0.0833,0.084
14.548000,0.0073,-0.0044,-0.0781,0.079
14.549000,0.0143,-0.0163,-0.0316,0.038
14.562000,0.0224,-0.0115,-0.0733,0.078
14.563000,0.0387,-0.0020,-0.0446,0.059
14.565000,0.0016,0.0063,-0.0625,0.063
14.574000,0.0111,0.0228,-0.0340,0.042
14.576000,0.0204,-0.0072,-0.0174,0.028
14.580000,0.0047,-0.0226,-0.0248,0.034
14.586000,0.0164,0.0072,0.0000,0.018
14.590000,0.0233,-0.0238,0.0008,0.033
14.596000,0.0064,-0.0095,-0.0043,0.012
14.600000,0.0312,-0.0118,-0.0201,0.039
14.605000,0.0155,0.0119,-0.0048,0.020
14.611000,-0.0001,-0.0263,0.0081,0.027
14.616000,0.0249,-0.0178,-0.0289,0.042
14.620000,0.0200,-0.0083,-0.0289,0.036
14.626000,-0.0051,0.0011,-0.0193,0.020
14.631000,0.0118,0.0081,-0.0217,0.026
14.648000,0.0297,0.0008,-0.0536,0.061
14.649000,0.0131,-0.0290,-0.0391,0.050
14.650000,0.0119,0.0102,-0.0401,0.043
14.671000,-0.0047,-0.0030,-0.0530,0.053
14.672000,-0.0128,-0.0019,-0.0491,0.051
14.673000,0.0264,-0.0376,-0.0227,0.051
14.673000,0.0251,0.0006,0.0069,0.026
14.674000,-0.0083,-0.0067,-0.0479,0.049
14.676000,0.0392,0.0099,-0.0408,0.057
14.681000,0.0376,-0.0021,-0.0181,0.042
14.687000,0.0207,0.0037,-0.0230,0.031
14.691000,0.0076,-0.0024,-0.0206,0.022
14.697000,0.0255,0.0070,-0.0253,0.037
14.705000,0.0182,-0.0027,0.0128,0.022
14.707000,-0.0079,-0.0004,-0.0135,0.016
14.711000,0.0255,-0.0266,-0.0111,0.039
14.717000,0.0244,-0.0337,0.0210,0.047
14.721000,0.0375,-0.0169,-0.0266,0.049
14.726000,0.0325,-0.0347,-0.0358,0.060
14.732000,0.0337,-0.0228,-0.0105,0.042
14.747000,0.0254,-0.0192,0.0097,0.033
14.748000,0.0183,-0.0370,-0.0307,0.051
14.748000,0.0112,-0.0214,-0.0708,0.075
14.771000,0.0279,-0.0308,-0.0574,0.071
14.772000,0.0374,0.0156,-0.0500,0.064
14.772000,0.0219,0.0213,-0.0950,0.100
14.773000,0.0195,-0.0028,-0.0684,0.071
14.773000,0.0326,-0.0041,-0.0503,0.060
14.777000,0.0196,-0.0090,-0.0680,0.071
14.783000,0.0352,0.0396,-0.0688,0.087
14.787000,0.0234,0.0023,-0.0434,0.049
14.792000,0.0189,-0.0121,-0.0372,0.043
14.798000,0.0620,-0.0205,-0.0441,0.079
14.803000,0.0583,-0.0573,-0.0260,0.086
14.808000,0.0405,-0.0630,0.0086,0.075
14.813000,0.0550,-0.0627,-0.0165,0.085
14.818000,0.0647,-0.0564,0.0143,0.087
14.823000,0.0006,-0.0514,0.0305,0.060
14.828000,-0.0060,-0.0512,0.0431,0.067
14.833000,0.0100,-0.0771,0.0449,0.090
14.839000,0.0224,-0.0826,0.0337,0.092
14.843000,0.0063,-0.0691,0.0215,0.073
14.848000,0.0092,-0.0118,0.0262,0.030
14.875000,0.0441,0.0202,0.0132,0.050
14.876000,-0.0008,0.0684,-0.0315,0.075
14.877000,0.0197,0.0962,-0.0757,0.124
14.878000,0.0222,0.0536,-0.0685,0.090
14.879000,0.0555,0.0589,-0.1112,0.138
14.884000,0.0424,0.0333,-0.1665,0.175
14.885000,0.0520,-0.0029,-0.1599,0.168
14.904000,0.0735,0.0088,-0.1296,0.149
14.906000,0.0902,-0.0224,-0.1344,0.163
14.906000,0.0806,-0.0545,-0.1216,0.156
14.907000,0.0832,-0.0578,-0.0973,0.140
14.909000,0.0574,-0.0683,-0.0486,0.102
14.914000,0.0438,-0.0609,-0.0182,0.077
14.920000,0.0468,-0.0594,-0.0155,0.077
14.924000,0.0188,-0.0473,0.0191,0.054
14.930000,-0.0019,-0.0376,0.0748,0.084
14.935000,-0.0013,-0.0006,0.0876,0.088
14.949000,0.0100,0.0336,0.0635,0.073
14.950000,-0.0064,0.0261,0.0766,0.081
14.950000,-0.0287,0.0316,0.0759,0.087
14.959000,-0.0011,0.0467,0.0565,0.073
14.960000,-0.0189,0.0343,0.0198,0.044
14.965000,-0.0249,0.0422,0.0121,0.050
14.983000,-0.0035,0.0358,0.0047,0.036
14.984000,-0.0202,0.0448,-0.0312,0.058
14.985000,-0.0178,0.0218,-0.0596,0.066
14.986000,-0.0107,0.0416,-0.0427,0.061
15.012000,-0.0048,0.0531,-0.0570,0.078
15.013000,-0.0049,0.0109,-0.0724,0.073
15.015000,-0.0228,-0.0082,-0.0474,0.053
15.016000,-0.0204,-0.0059,-0.0487,0.053
15.016000,0.0116,0.0142,-0.0085,0.020
15.017000,0.0030,-0.0382,0.0004,0.038
15.026000,0.0301,-0.0677,0.0317,0.081
15.027000,0.0296,-0.0340,-0.0014,0.045
15.031000,0.0079,-0.0172,0.0240,0.031
15.036000,0.0148,-0.0528,0.0005,0.055
15.041000,0.0240,-0.0595,-0.0014,0.064
15.046000,0.0012,-0.0319,-0.0331,0.046
15.051000,-0.0060,-0.0436,-0.0290,0.053
15.056000,0.0214,-0.0374,-0.0558,0.071
15.061000,-0.0060,-0.0432,-0.0670,0.080
15.066000,0.0143,-0.0192,-0.0483,0.054
15.084000,0.0202,-0.0287,-0.0382,0.052
15.086000,-0.0083,-0.0108,-0.0448,0.047
15.086000,-0.0224,-0.0144,-0.0753,0.080
15.088000,-0.0161,-0.0132,-0.0426,0.047
15.091000,-0.0395,0.0057,-0.0374,0.055
15.097000,-0.0496,0.0091,-0.0690,0.086
15.101000,-0.0145,0.0029,-0.0553,0.057
15.119000,-0.0307,0.0087,-0.0501,0.059
15.120000,-0.0397,-0.0070,-0.0320,0.051
15.121000,-0.0117,-0.0285,-0.0210,0.037
15.122000,-0.0112,-0.0201,-0.0458,0.051
15.126000,-0.0096,-0.0189,-0.0371,0.043
15.131000,-0.0210,-0.0296,-0.0273,0.045
15.139000,-0.0181,-0.0224,-0.0318,0.043
15.141000,-0.0151,-0.0462,0.0027,0.049
15.146000,0.0009,-0.0282,-0.0034,0.028
15.151000,0.0050,-0.0258,0.0085,0.028
15.157000,-0.0232,0.0004,-0.0213,0.031
15.161000,-0.0238,0.0121,0.0025,0.027
15.166000,-0.0139,0.0023,0.0178,0.023
15.172000,-0.0134,0.0057,-0.0059,0.016
15.177000,-0.0094,0.0162,-0.0057,0.020
15.182000,-0.0089,0.0087,0.0229,0.026
15.198000,-0.0381,-0.0034,-0.0079,0.039
15.199000,-0.0101,-0.0178,-0.0087,0.022
15.199000,-0.0191,-0.0060,0.0429,0.047
15.202000,-0.0127,-0.0050,0.0670,0.068
15.216000,-0.0312,-0.0301,0.0149,0.046
15.217000,-0.0186,-0.0550,0.0334,0.067
15.218000,-0.0310,-0.0406,0.0686,0.086
15.227000,-0.0196,-0.0227,0.0182,0.035
15.228000,-0.0189,-0.0227,0.0300,0.042
15.233000,-0.0136,-0.0228,-0.0152,0.031
15.238000,-0.0525,-0.0275,-0.0091,0.060
15.242000,-0.0032,0.0164,-0.0672,0.069
15.248000,0.0089,0.0244,-0.0941,0.098
15.254000,0.0030,0.0228,-0.1043,0.107
15.257000,0.0198,0.0011,-0.0648,0.068
15.263000,0.0458,0.0116,-0.0993,0.110
15.267000,0.0420,0.0363,-0.0883,0.104
15.273000,0.0420,0.0204,-0.0739,0.087
15.278000,0.0181,0.0224,-0.0442,0.053
15.283000,0.0335,-0.0266,-0.0492,0.065
15.297000,0.0370,-0.0087,-0.0481,0.061
15.298000,0.0737,0.0042,-0.0650,0.098
15.298000,0.0485,0.0063,-0.0579,0.076
15.315000,0.0151,-0.0010,-0.0343,0.037
15.316000,-0.0061,-0.0012,-0.0038,0.007
15.317000,0.0261,-0.0203,-0.0472,0.058
15.318000,0.0403,-0.0203,-0.0371,0.058
15.327000,0.0068,-0.0131,-0.0176,0.023
15.328000,0.0412,-0.0084,-0.0375,0.056
15.333000,0.0220,-0.0073,-0.0514,0.056
15.338000,-0.0080,-0.0133,-0.0686,0.070
15.344000,0.0134,-0.0085,-0.0358,0.039
15.349000,-0.0141,0.0081,-0.0544,0.057
15.354000,-0.0272,-0.0111,-0.0183,0.035
15.358000,0.0217,-0.0028,-0.0157,0.027
15.364000,0.0261,-0.0384,-0.0320,0.056
15.369000,0.0197,-0.0085,-0.0303,0.037
15.374000,0.0265,-0.0228,-0.0514,0.062
15.379000,0.0141,-0.0119,-0.0057,0.019
15.384000,0.0032,-0.0274,-0.0032,0.028
15.390000,0.0338,-0.0296,-0.0163,0.048
15.395000,-0.0010,-0.0413,0.0087,0.042
15.400000,0.0368,-0.0197,-0.0010,0.042
15.419000,0.0377,-0.0564,-0.0427,0.080
15.420000,0.0205,-0.0441,0.0038,0.049
15.421000,0.0178,-0.0189,0.0167,0.031
15.421000,0.0066,-0.0259,-0.0109,0.029
15.427000,0.0062,-0.0281,-0.0193,0.035
15.429000,0.0248,-0.0623,-0.0050,0.067
15.435000,0.0231,-0.0334,-0.0062,0.041
15.451000,0.0095,0.0120,0.0022,0.015
15.452000,-0.0100,-0.0321,-0.0012,0.034
15.453000,0.0171,-0.0200,0.0156,0.031
15.466000,-0.0012,0.0003,0.0146,0.015
15.467000,0.0008,-0.0271,-0.0016,0.027
15.468000,0.0005,-0.0198,0.0013,0.020
15.482000,0.0037,-0.0161,-0.0303,0.034
15.483000,-0.0157,-0.0125,-0.0248,0.032
15.483000,-0.0150,-0.0255,-0.0241,0.038
15.485000,-0.0260,-0.0408,-0.0221,0.053
15.491000,-0.0440,-0.0132,-0.0226,0.051
15.496000,-0.0156,-0.0095,-0.0219,0.029
15.500000,-0.0041,-0.0083,-0.0152,0.018
15.505000,-0.0152,-0.0403,-0.0489,0.065
15.511000,-0.0086,-0.0198,-0.0255,0.033
15.515000,-0.0151,-0.0137,-0.0617,0.065
15.531000,-0.0084,-0.0326,-0.0239,0.041
15.532000,0.0005,-0.0312,-0.0091,0.032
15.533000,-0.0121,-0.0285,-0.0088,0.032
15.535000,-0.0186,-0.0034,-0.0108,0.022
15.553000,0.0094,-0.0366,-0.0437,0.058
15.554000,0.0348,-0.0078,0.0079,0.037
15.555000,0.0220,-0.0196,-0.0017,0.030
15.557000,0.0093,-0.0301,-0.0194,0.037
15.561000,0.0123,-0.0156,-0.0002,0.020
15.565000,0.0497,-0.0250,-0.0037,0.056
15.572000,0.0048,-0.0580,0.0036,0.058
15.576000,0.0019,-0.0493,-0.0165,0.052
15.581000,0.0371,-0.0370,-0.0234,0.057
15.586000,0.0115,-0.0308,-0.0183,0.038
15.591000,0.0288,-0.0354,-0.0048,0.046
15.596000,-0.0241,-0.0517,0.0133,0.059
15.600000,-0.0196,-0.0323,-0.0078,0.039
15.607000,0.0135,-0.0096,-0.0038,0.017
15.610000,0.0024,0.0071,-0.0044,0.009
15.616000,-0.0254,-0.0156,0.0044,0.030
15.633000,0.0052,-0.0167,-0.0355,0.040
15.634000,-0.0083,-0.0546,0.0009,0.055
15.634000,-0.0064,-0.0340,-0.0165,0.038
15.636000,-0.0057,-0.0124,-0.0099,0.017
15.655000,0.0009,-0.0170,0.0215,0.027
15.656000,0.0097,-0.0086,0.0053,0.014
15.656000,0.0221,0.0069,-0.0286,0.037
15.658000,0.0094,-0.0015,-0.0467,0.048
15.661000,0.0252,-0.0157,-0.0137,0.033
15.667000,0.0256,-0.0251,-0.0415,0.055
15.672000,0.0260,-0.0214,-0.0549,0.064
15.677000,0.0324,-0.0058,-0.0373,0.050
15.682000,0.0445,0.0287,-0.0091,0.054
15.688000,0.0138,0.0273,-0.0133,0.033
15.692000,0.0273,0.0389,-0.0353,0.059
15.697000,0.0407,0.0208,-0.0524,0.070
15.702000,0.0527,-0.0079,-0.0586,0.079
15.708000,0.0078,-0.0102,-0.0577,0.059
15.712000,0.0001,0.0017,-0.0355,0.035
15.718000,0.0352,-0.0268,-0.0336,0.056
15.724000,0.0107,-0.0409,-0.0377,0.057
15.728000,0.0268,-0.0002,-0.0110,0.029
15.733000,0.0581,-0.0145,-0.0141,0.062
15.753000,0.0440,-0.0298,0.0041,0.053
15.754000,0.0431,-0.0189,0.0197,0.051
15.755000,0.0455,-0.0021,0.0021,0.046
15.756000,0.0588,-0.0282,-0.0083,0.066
15.758000,0.0671,-0.0102,-0.0376,0.078
15.763000,0.0446,0.0398,0.0010,0.060
15.769000,0.0650,0.0026,-0.0307,0.072
15.782000,0.0720,-0.0009,-0.0288,0.078
15.783000,0.0460,-0.0093,-0.0315,0.056
15.784000,0.0689,0.0287,-0.0329,0.082
15.796000,0.0476,0.0237,-0.0589,0.079
15.797000,0.0300,0.0187,-0.0418,0.055
15.799000,0.0223,0.0078,-0.0213,0.032
15.808000,0.0229,-0.0244,-0.0401,0.052
15.809000,0.0735,-0.0397,-0.0613,0.104
15.814000,0.0085,-0.0122,-0.0764,0.078
15.819000,0.0235,-0.0335,-0.0475,0.063
15.824000,0.0525,-0.0630,-0.0095,0.083
15.829000,0.0409,-0.0649,-0.0029,0.077
15.834000,0.0222,-0.0548,0.0283,0.066
15.854000,0.0143,-0.1042,0.0923,0.140
15.855000,0.0244,-0.0832,0.1496,0.173
15.861000,0.0282,-0.0682,0.0995,0.124
15.862000,-0.0036,-0.0854,0.0652,0.107
15.863000,0.0267,-0.0728,0.0608,0.099
15.884000,-0.0097,-0.0319,0.0316,0.046
15.885000,0.0004,-0.0055,0.0231,0.024
15.886000,0.0235,0.0124,-0.0325,0.042
15.887000,0.0013,0.0289,-0.0672,0.073
15.888000,0.0160,0.0394,-0.1274,0.134
15.900000,0.0068,0.0461,-0.1381,0.146
15.901000,0.0086,0.0445,-0.1738,0.180
15.901000,0.0173,0.0251,-0.1595,0.162
15.913000,0.0321,-0.0226,-0.1635,0.168
15.914000,0.0231,-0.0391,-0.1146,0.123
15.915000,0.0368,-0.0518,-0.0949,0.114
15.920000,0.0776,-0.0739,-0.0261,0.110
15.926000,0.0648,-0.0852,0.0395,0.114
15.931000,0.0163,-0.0560,0.0737,0.094
15.936000,0.0063,-0.0508,0.1148,0.126
15.940000,0.0258,-0.0645,0.1546,0.170
15.945000,0.0378,-0.0461,0.1719,0.182
15.951000,0.0368,-0.0208,0.1859,0.191
15.966000,0.0060,0.0091,0.1576,0.158
15.967000,0.0241,0.0185,0.1086,0.113
15.967000,-0.0115,0.0350,0.0804,0.088
15.971000,0.0197,0.0371,0.0253,0.049
