time,ax,ay,az,aT
0.005000,-0.1031,-0.0332,-0.7205,0.729
0.006000,-0.2326,-0.0157,-0.6045,0.648
0.006000,-0.2498,-0.0114,-0.3844,0.459
0.007000,-0.1262,-0.0591,-0.2333,0.272
0.008000,0.0174,-0.1232,-0.1173,0.171
0.008000,0.1409,-0.1527,-0.0634,0.217
0.009000,0.2685,-0.1240,-0.0533,0.300
0.042000,0.2654,-0.0815,0.0004,0.278
0.044000,0.2785,-0.0347,0.1979,0.343
0.044000,0.3776,-0.0290,0.4123,0.560
0.045000,0.4403,-0.0131,0.5611,0.713
0.046000,0.4413,-0.0229,0.5476,0.704
0.046000,0.3932,-0.0056,0.3491,0.526
0.047000,0.3435,-0.0182,0.0721,0.351
0.050000,0.2759,0.0055,-0.2013,0.342
0.052000,0.2059,0.0074,-0.4774,0.520
0.077000,0.1164,-0.0096,-0.6048,0.616
0.079000,-0.0170,0.0287,-0.6532,0.654
0.079000,-0.0573,0.0985,-0.6660,0.676
0.080000,0.0977,0.0800,-0.7123,0.723
0.081000,0.1853,0.0344,-0.6296,0.657
0.097000,0.1232,0.0826,-0.4838,0.506
0.098000,-0.0073,0.1916,-0.2828,0.342
0.099000,-0.2111,0.2286,-0.1034,0.328
0.100000,-0.2984,0.1876,0.0488,0.356
0.103000,-0.3408,0.2229,0.2237,0.465
0.109000,-0.3296,0.2089,0.3521,0.526
0.114000,-0.3416,0.2222,0.3586,0.543
0.119000,-0.3508,0.2303,0.3763,0.564
0.124000,-0.3782,0.1995,0.4317,0.608
0.129000,-0.3391,0.2124,0.4278,0.586
0.145000,-0.3313,0.2122,0.4562,0.602
0.147000,-0.3182,0.1959,0.3367,0.503
0.148000,-0.2940,0.1466,0.2361,0.405
0.149000,-0.2426,0.1215,0.2705,0.383
0.166000,-0.1694,0.1422,0.3117,0.382
0.167000,0.0432,0.2417,0.4881,0.546
0.168000,0.1444,0.2378,0.5354,0.603
0.169000,-0.0249,0.1495,0.4421,0.467
0.174000,-0.1110,0.1164,0.5936,0.615
0.179000,-0.0740,0.0450,0.7124,0.718
0.185000,0.0425,-0.0372,0.5678,0.571
0.189000,0.0928,-0.0642,0.4300,0.445
0.195000,0.1227,-0.0295,0.4277,0.446
0.204000,0.1058,-0.0739,0.5831,0.597
0.206000,0.1365,-0.0944,0.7572,0.775
0.210000,0.2079,-0.1073,0.7415,0.778
0.215000,0.2860,-0.1429,0.6135,0.692
0.227000,0.2522,-0.1886,0.5018,0.592
0.228000,0.2092,-0.1241,0.4323,0.496
0.230000,0.0892,-0.0794,0.3650,0.384
0.248000,-0.0935,-0.0452,0.2834,0.302
0.251000,-0.1966,-0.0248,0.1731,0.263
0.253000,-0.0946,-0.0395,0.0639,0.121
0.253000,0.1078,-0.0870,-0.0860,0.163
0.255000,0.2323,-0.1198,-0.1064,0.282
0.260000,0.3153,-0.0209,-0.0378,0.318
0.265000,0.3047,-0.0267,-0.0821,0.317
0.271000,0.2690,-0.0344,-0.1874,0.330
0.276000,0.2442,-0.0632,-0.3094,0.399
0.281000,0.1418,-0.0310,-0.3845,0.411
0.286000,0.1770,-0.0040,-0.4555,0.489
0.290000,0.2260,-0.0278,-0.4877,0.538
0.296000,0.2733,-0.0416,-0.4929,0.565
0.301000,0.3207,-0.0727,-0.4020,0.519
0.306000,0.3125,-0.0817,-0.2414,0.403
0.311000,0.3625,-0.1580,-0.0856,0.405
0.318000,0.3462,-0.2308,0.0870,0.425
0.321000,0.3166,-0.1866,0.2321,0.435
0.326000,0.2637,-0.1593,0.2408,0.391
0.331000,0.2462,-0.1401,0.2351,0.368
0.346000,0.2665,-0.1371,0.2170,0.370
0.348000,0.2748,-0.0994,0.2448,0.381
0.349000,0.3711,-0.0636,0.2451,0.449
0.370000,0.4345,0.0160,0.3565,0.562
0.372000,0.4440,0.0950,0.6148,0.764
0.373000,0.4898,0.1474,0.7957,0.946
0.374000,0.2373,0.1953,1.0827,1.126
0.375000,-0.1652,0.2114,1.2648,1.293
0.376000,-0.3079,0.0883,1.1036,1.149
0.381000,-0.3031,0.0611,0.7661,0.826
0.387000,-0.2168,0.1219,0.5988,0.648
0.393000,-0.1658,0.1590,0.3725,0.438
0.397000,-0.1263,0.0537,0.1344,0.192
0.402000,0.0104,-0.0876,-0.2413,0.257
0.407000,0.1525,-0.1300,-0.4656,0.507
0.412000,0.2271,-0.1614,-0.6634,0.719
0.432000,0.2505,-0.1372,-0.7203,0.775
0.433000,0.3131,-0.1645,-0.7875,0.863
0.434000,0.4049,-0.2308,-0.8340,0.955
0.436000,0.4503,-0.2942,-0.8721,1.025
0.439000,0.4577,-0.3197,-0.9627,1.113
0.443000,0.4142,-0.3285,-0.9518,1.089
0.448000,0.3585,-0.3091,-0.8943,1.012
0.461000,0.3239,-0.2313,-0.7999,0.893
0.463000,0.3196,-0.2308,-0.6995,0.803
0.464000,0.3004,-0.2667,-0.6194,0.738
0.477000,0.2932,-0.2542,-0.5476,0.671
0.478000,0.3219,-0.2159,-0.4301,0.579
0.479000,0.2812,-0.1381,-0.0636,0.320
0.487000,0.2255,-0.0942,0.3918,0.462
0.488000,0.2442,-0.1144,0.5090,0.576
0.493000,0.1756,-0.1108,0.2651,0.337
0.498000,0.2688,-0.2206,0.1782,0.391
0.504000,0.2799,-0.0285,0.3160,0.423
0.508000,0.1661,0.0397,0.3991,0.434
0.513000,0.0587,-0.1268,0.3534,0.380
0.518000,0.0158,-0.2436,0.2885,0.378
0.523000,-0.0500,-0.2662,0.3264,0.424
0.529000,-0.1221,-0.2811,0.3439,0.461
0.535000,-0.1457,-0.2096,0.3996,0.474
0.538000,-0.3780,-0.0854,0.5272,0.654
0.544000,-0.8305,0.1313,0.8296,1.181
0.549000,-1.0447,0.3840,1.2080,1.643
0.566000,-0.7677,0.4489,1.4268,1.681
0.568000,-0.3965,0.3967,1.4490,1.554
0.570000,-0.2638,0.2133,1.2897,1.334
0.571000,-0.3728,0.0656,0.9777,1.048
0.574000,-0.5982,0.0448,0.6754,0.903
0.578000,-0.7501,0.1046,0.3300,0.826
0.593000,-0.7796,0.1894,0.0091,0.802
0.594000,-0.7489,0.2918,-0.3011,0.858
0.595000,-0.6384,0.3046,-0.4742,0.852
0.599000,-0.5529,0.3057,-0.5298,0.824
0.607000,-0.5367,0.3622,-0.5254,0.834
0.609000,-0.5638,0.3673,-0.2540,0.719
0.614000,-0.5827,0.3460,0.1101,0.687
0.621000,-0.5799,0.3431,0.4394,0.804
0.625000,-0.5524,0.2835,0.7811,0.998
0.630000,-0.5594,0.2189,1.0686,1.226
0.635000,-0.5507,0.1718,1.3635,1.481
0.640000,-0.4180,0.0958,1.6865,1.740
0.645000,-0.3223,0.0612,2.0559,2.082
0.665000,-0.3177,0.0899,2.2641,2.288
0.667000,-0.3207,0.1061,2.4085,2.432
0.669000,-0.3804,0.0166,2.3232,2.354
0.671000,-0.4382,-0.0665,2.0464,2.094
0.673000,-0.4474,-0.1289,1.5873,1.654
0.676000,-0.4159,-0.2027,1.1643,1.253
0.680000,-0.2464,-0.3403,0.8218,0.923
0.695000,-0.0402,-0.4523,0.4839,0.664
0.697000,0.0733,-0.4464,0.2313,0.508
0.698000,0.1128,-0.3445,0.0622,0.368
0.701000,0.0034,-0.2502,-0.0347,0.253
0.709000,-0.1247,-0.2574,-0.1603,0.328
0.710000,-0.1820,-0.2435,-0.3576,0.469
0.716000,-0.2180,-0.1638,-0.6184,0.676
0.723000,-0.2783,-0.0359,-0.9297,0.971
0.726000,-0.2446,0.0924,-1.2164,1.244
0.731000,-0.2413,0.1217,-1.4233,1.449
0.737000,-0.2316,0.1608,-1.5410,1.567
0.741000,-0.3314,0.1601,-1.5718,1.614
0.746000,-0.4809,0.1346,-1.5870,1.664
0.763000,-0.5845,0.0788,-1.6090,1.714
0.765000,-0.6258,0.1260,-1.5421,1.669
0.767000,-0.5361,0.1915,-1.4946,1.599
0.768000,-0.4344,0.2362,-1.5106,1.589
0.771000,-0.3433,0.2476,-1.6330,1.687
0.776000,-0.2582,0.1977,-1.6898,1.721
0.781000,-0.0736,0.1082,-1.6957,1.701
0.788000,0.0607,-0.0313,-1.6656,1.667
0.791000,0.1956,-0.1853,-1.5974,1.620
0.797000,0.2742,-0.3235,-1.5177,1.576
0.802000,0.3890,-0.4155,-1.3525,1.467
0.807000,0.5337,-0.4764,-1.2754,1.462
0.812000,0.7699,-0.5953,-1.2181,1.559
0.817000,0.9476,-0.7324,-1.3252,1.786
0.822000,1.0467,-0.7969,-1.5550,2.037
0.827000,0.9566,-0.8308,-1.6797,2.104
0.832000,0.7686,-0.8026,-1.7320,2.058
0.837000,0.6135,-0.8171,-1.5716,1.875
0.842000,0.4608,-0.7830,-1.3719,1.645
0.847000,0.3671,-0.7427,-1.1109,1.386
0.854000,0.3491,-0.6339,-0.9423,1.188
0.857000,0.3820,-0.4888,-0.7614,0.982
0.862000,0.4220,-0.4312,-0.6611,0.895
0.882000,0.2700,-0.3162,-0.5964,0.727
0.884000,-0.1456,-0.1493,-0.2943,0.361
0.884000,-0.3829,-0.0632,0.2096,0.441
0.886000,-0.2160,-0.1149,0.6228,0.669
0.889000,-0.0293,-0.1590,0.9211,0.935
0.893000,-0.1638,-0.1659,1.6299,1.646
0.898000,-0.7004,-0.3145,3.5979,3.679
0.913000,-1.6806,-0.3308,6.4141,6.639
0.915000,-2.7128,0.1009,6.6024,7.139
0.917000,-2.0546,0.2538,3.3128,3.906
0.919000,-0.2732,0.0873,0.1246,0.313
0.926000,0.7012,0.1578,-1.4092,1.582
0.928000,0.5188,0.4262,-1.5442,1.684
0.935000,0.0175,0.4472,-1.0675,1.157
0.939000,-0.3236,0.3283,-0.7440,0.875
0.943000,-0.4149,0.2728,-0.7765,0.922
0.948000,-0.4592,0.3035,-0.9877,1.131
0.953000,-0.4011,0.3291,-0.9373,1.071
0.959000,-0.3878,0.4092,-0.6444,0.856
0.964000,-0.4131,0.4701,-0.2500,0.674
0.983000,-0.3277,0.4194,0.0849,0.539
0.986000,-0.2909,0.3300,0.2088,0.487
0.987000,-0.3411,0.1431,0.1257,0.391
0.988000,-0.3356,-0.0620,0.0044,0.341
1.030000,-0.1869,-0.2987,-0.0068,0.352
1.031000,0.0367,-0.4663,0.0379,0.469
1.032000,0.2143,-0.4842,0.1940,0.564
1.033000,0.3641,-0.4343,0.2499,0.619
1.034000,0.4726,-0.4317,0.2298,0.680
1.035000,0.5537,-0.4334,0.1923,0.729
1.036000,0.6106,-0.3029,0.2865,0.739
1.037000,0.6244,-0.1113,0.4589,0.783
1.038000,0.7092,0.0421,0.5098,0.874
1.039000,0.6640,0.1057,0.5279,0.855
1.040000,0.5232,0.0764,0.5849,0.788
1.044000,0.4829,-0.0206,0.6077,0.776
1.050000,0.3728,-0.0092,0.6538,0.753
1.055000,0.1530,0.0172,0.5389,0.560
1.060000,0.0123,0.0161,0.4150,0.415
1.065000,-0.1045,0.0594,0.3594,0.379
1.069000,-0.2011,0.0945,0.2502,0.335
1.075000,-0.2610,0.1288,0.2142,0.361
1.080000,-0.3029,0.1634,0.1697,0.384
1.100000,-0.2724,0.1939,0.1237,0.357
1.103000,-0.3125,0.2102,-0.0036,0.377
1.105000,-0.4187,0.2198,-0.1730,0.504
1.106000,-0.6030,0.2731,-0.3321,0.741
1.107000,-0.7164,0.2712,-0.3320,0.835
1.110000,-0.6418,0.2227,-0.2984,0.742
1.115000,-0.4349,0.1443,-0.1476,0.481
1.129000,-0.1893,0.1159,0.1351,0.260
1.130000,0.0111,0.0533,0.3753,0.379
1.131000,0.0685,-0.0105,0.4685,0.474
1.150000,0.1083,-0.0683,0.4483,0.466
1.151000,0.1596,-0.0818,0.3195,0.366
1.153000,0.1696,-0.0558,0.0919,0.201
1.154000,0.1321,0.0011,-0.0170,0.133
1.156000,0.1249,0.0485,0.0462,0.142
1.161000,0.1535,0.0625,0.2061,0.265
1.166000,0.1189,0.0801,0.3732,0.400
1.170000,0.0456,0.1571,0.4114,0.443
1.176000,-0.0323,0.2280,0.4524,0.508
1.181000,-0.0770,0.2627,0.4449,0.522
1.187000,-0.1210,0.3054,0.3842,0.506
1.190000,-0.2177,0.2928,0.3662,0.517
1.196000,-0.2363,0.2308,0.3213,0.461
1.201000,-0.2240,0.1650,0.0774,0.289
1.206000,-0.2407,0.1744,-0.0800,0.308
1.212000,-0.2728,0.1477,-0.0516,0.314
1.217000,-0.2713,0.1675,-0.0002,0.319
1.234000,-0.2480,0.1931,-0.0361,0.316
1.236000,-0.2470,0.2022,0.0200,0.320
1.236000,-0.2675,0.1813,0.0295,0.324
1.248000,-0.3196,0.1367,-0.0412,0.350
1.249000,-0.4247,0.1402,-0.0715,0.453
1.250000,-0.4804,0.1656,-0.0449,0.510
1.260000,-0.4103,0.0715,-0.0185,0.417
1.262000,-0.2756,-0.0058,0.0353,0.278
1.264000,-0.1064,-0.0487,0.0522,0.128
1.267000,0.0126,-0.1269,0.0335,0.132
1.276000,0.0635,-0.0863,0.0466,0.117
1.278000,0.0448,-0.0671,0.1297,0.153
1.282000,-0.0041,-0.0754,0.0570,0.095
1.290000,-0.1025,-0.0283,0.0115,0.107
1.292000,-0.1584,0.0360,0.0802,0.181
1.298000,-0.1822,0.0730,0.2466,0.315
1.304000,-0.1355,0.0639,0.3933,0.421
1.307000,-0.1087,-0.0100,0.4198,0.434
1.313000,-0.1917,-0.1215,0.4580,0.511
1.318000,-0.3008,-0.1934,0.4860,0.603
1.333000,-0.2840,-0.1946,0.3553,0.495
1.334000,-0.3258,-0.0951,0.2656,0.431
1.335000,-0.3920,-0.0087,0.3101,0.500
1.360000,-0.3920,0.0144,0.3515,0.527
1.361000,-0.3417,-0.0140,0.3563,0.494
1.362000,-0.2899,-0.0806,0.3270,0.444
1.363000,-0.2848,-0.2127,0.1224,0.376
1.364000,-0.3456,-0.2980,-0.0927,0.466
1.364000,-0.4227,-0.3662,-0.1978,0.593
1.374000,-0.3748,-0.3683,-0.2161,0.568
1.375000,-0.2758,-0.3050,-0.1078,0.425
1.378000,-0.1350,-0.2172,0.0947,0.273
1.384000,-0.0159,-0.0684,0.4292,0.435
1.389000,0.0656,0.1115,0.4845,0.502
1.393000,0.0308,0.2398,0.3785,0.449
1.399000,-0.1623,0.3886,0.2535,0.492
1.404000,-0.3258,0.4208,0.1904,0.565
1.409000,-0.3207,0.3949,-0.0283,0.510
1.414000,-0.2568,0.3485,-0.1254,0.451
1.418000,-0.2055,0.2433,-0.0679,0.326
1.424000,-0.1475,0.1333,-0.0150,0.199
1.429000,-0.0994,0.0878,0.0141,0.133
1.434000,-0.1089,0.0849,0.0713,0.155
1.447000,-0.0698,0.0854,0.1156,0.160
1.448000,-0.0158,0.0849,0.0103,0.087
1.450000,-0.0114,0.1105,-0.1412,0.180
1.467000,-0.0231,0.1591,-0.1074,0.193
1.468000,-0.1206,0.2747,0.0485,0.304
1.469000,-0.1761,0.3814,0.0278,0.421
1.479000,-0.1179,0.3776,-0.0961,0.407
1.480000,-0.1175,0.3529,-0.2334,0.439
1.481000,-0.1921,0.4043,-0.1908,0.487
1.484000,-0.1666,0.4181,-0.1992,0.492
1.491000,-0.0493,0.3953,-0.1162,0.415
1.496000,0.0803,0.3852,-0.0079,0.394
1.500000,0.2508,0.5562,0.0016,0.610
1.504000,0.5145,0.6810,-0.0076,0.854
1.510000,0.7056,0.3739,0.1458,0.812
1.515000,0.7820,0.1609,0.3895,0.888
1.520000,0.6702,0.1370,0.5829,0.899
1.525000,0.5476,0.2488,0.5655,0.826
1.530000,0.4442,0.5573,0.5096,0.876
1.535000,0.4457,1.0761,0.2400,1.189
1.552000,0.4895,1.2055,0.1930,1.315
1.553000,0.5273,1.0717,0.3570,1.247
1.555000,0.6554,0.8994,0.5422,1.238
1.557000,0.7315,0.7103,0.4876,1.130
1.561000,0.7838,0.5380,0.4779,1.064
1.566000,0.7651,0.4141,0.6843,1.107
1.582000,0.7707,0.3370,0.8155,1.172
1.583000,0.8030,0.2019,0.8290,1.172
1.585000,0.7973,0.0251,0.7875,1.121
1.586000,0.7467,-0.1360,0.7245,1.049
1.596000,0.6760,-0.1934,0.7527,1.030
1.597000,0.5448,-0.2262,0.6484,0.877
1.601000,0.4682,-0.2416,0.5742,0.779
1.611000,0.3939,-0.2552,0.6413,0.795
1.612000,0.4330,-0.2672,0.7506,0.907
1.616000,0.3808,-0.2188,0.9284,1.027
1.623000,0.3238,-0.1711,1.0519,1.114
1.627000,0.1885,-0.1910,0.9501,0.987
1.632000,-0.0181,-0.1956,0.7977,0.821
1.638000,-0.1108,-0.1332,0.7902,0.809
1.641000,-0.0732,-0.1283,0.9037,0.916
1.646000,-0.0258,-0.1857,0.9243,0.943
1.651000,-0.0618,-0.2398,0.8653,0.900
1.665000,-0.0397,-0.2125,0.9273,0.952
1.667000,-0.0022,-0.1620,1.0331,1.046
1.668000,-0.0926,-0.0476,1.0094,1.015
1.688000,-0.1711,0.0504,0.8672,0.885
1.689000,-0.2178,0.0387,0.6362,0.674
1.690000,-0.2259,0.0290,0.6540,0.693
1.691000,-0.1017,0.0628,0.8385,0.847
1.692000,-0.0203,0.0865,1.0304,1.034
1.697000,-0.0004,0.0248,1.0719,1.072
1.702000,-0.0042,-0.0253,1.0539,1.054
1.707000,-0.0120,-0.0607,1.0264,1.028
1.713000,-0.0261,-0.0455,1.0678,1.069
1.717000,-0.0516,-0.0479,1.0853,1.088
1.722000,-0.0587,-0.0483,1.0365,1.039
1.727000,-0.0604,-0.0303,1.0092,1.011
1.733000,-0.0492,-0.0116,0.9649,0.966
1.739000,-0.0409,-0.0173,0.8676,0.869
1.743000,-0.0273,-0.0009,0.8182,0.819
1.748000,-0.0231,-0.0055,0.8249,0.825
1.753000,0.0241,-0.0363,0.8346,0.836
1.757000,0.0784,-0.0456,0.7556,0.761
1.763000,0.1430,-0.1185,0.6906,0.715
1.768000,0.1708,-0.1487,0.7791,0.811
1.785000,0.1477,-0.1138,0.7292,0.753
1.787000,0.0213,-0.1201,0.6497,0.661
1.788000,-0.0688,-0.1755,0.5796,0.609
1.791000,-0.1069,-0.2358,0.6157,0.668
1.793000,-0.1398,-0.2756,0.6533,0.723
1.799000,-0.1895,-0.3232,0.6286,0.732
1.819000,-0.3130,-0.3563,0.5850,0.753
1.820000,-0.4411,-0.4281,0.4441,0.758
1.821000,-0.4904,-0.5411,0.3423,0.807
1.822000,-0.3637,-0.6785,0.3262,0.836
1.824000,-0.2078,-0.7770,0.4197,0.907
1.829000,-0.1497,-0.7735,0.5538,0.963
1.834000,-0.1092,-0.7472,0.4912,0.901
1.839000,-0.1411,-0.6698,0.3831,0.784
1.844000,-0.2838,-0.4968,0.3597,0.676
1.849000,-0.4190,-0.3719,0.3072,0.639
1.855000,-0.4813,-0.3882,0.2411,0.664
1.859000,-0.4472,-0.4160,0.1477,0.628
1.864000,-0.3967,-0.4341,0.2594,0.643
1.869000,-0.3829,-0.4961,0.3365,0.711
1.886000,-0.3991,-0.5613,0.2308,0.726
1.888000,-0.4464,-0.5267,0.2003,0.719
1.889000,-0.4375,-0.5383,0.2099,0.725
1.892000,-0.3491,-0.6319,0.2590,0.767
1.895000,-0.3103,-0.7263,0.2816,0.839
1.899000,-0.2083,-0.8764,0.1820,0.919
1.917000,-0.0726,-1.0066,0.2612,1.042
1.919000,-0.0405,-1.0706,0.3441,1.125
1.920000,-0.0248,-1.1809,0.2871,1.216
1.921000,0.0557,-1.2250,0.2518,1.252
1.932000,0.0530,-1.2794,0.1671,1.291
1.936000,0.0046,-1.2211,0.1940,1.236
1.937000,-0.0529,-1.1460,0.1807,1.161
1.946000,-0.1197,-1.0673,0.0663,1.076
1.947000,-0.1458,-0.9991,0.0383,1.010
1.950000,-0.1752,-0.9070,0.1555,0.937
1.957000,-0.1630,-0.8424,0.2362,0.890
1.962000,-0.1226,-0.7477,0.2861,0.810
1.965000,-0.1763,-0.6970,0.3716,0.809
1.970000,-0.1814,-0.7371,0.4501,0.883
1.984000,-0.2085,-0.8030,0.2771,0.875
1.986000,-0.2380,-0.8910,0.2328,0.951
1.987000,-0.2056,-0.9591,0.2984,1.025
2.009000,-0.1982,-1.0027,0.2184,1.045
2.010000,-0.2488,-1.0898,0.1646,1.130
2.016000,-0.2374,-1.1584,0.0730,1.185
2.017000,-0.1871,-1.2371,-0.1058,1.256
2.018000,-0.1015,-1.2351,-0.1933,1.254
2.020000,-0.0236,-1.2673,-0.2340,1.289
2.021000,0.1079,-1.3589,-0.2438,1.385
2.027000,0.2320,-1.3761,-0.2285,1.414
2.031000,0.3472,-1.3561,-0.1914,1.413
2.036000,0.3529,-1.3109,-0.0691,1.359
2.041000,0.3596,-1.3053,-0.1585,1.363
2.047000,0.3698,-1.2627,-0.3308,1.357
2.052000,0.3203,-1.2366,-0.3853,1.334
2.057000,0.2446,-1.1807,-0.3814,1.265
2.062000,0.1750,-1.0722,-0.4929,1.193
2.067000,0.1591,-1.0126,-0.5214,1.150
2.073000,0.2124,-0.9650,-0.4931,1.104
2.077000,0.1854,-0.9818,-0.5231,1.128
2.082000,0.2270,-1.0044,-0.6179,1.201
2.087000,0.2629,-0.9742,-0.6000,1.174
2.107000,0.2725,-0.9497,-0.5725,1.142
2.109000,0.2059,-0.8842,-0.6024,1.090
2.111000,0.1234,-0.6991,-0.6086,0.935
2.115000,0.0593,-0.5545,-0.6500,0.856
2.116000,-0.0694,-0.4421,-0.7618,0.883
2.118000,-0.1096,-0.3786,-0.7823,0.876
2.134000,-0.0906,-0.3759,-0.6823,0.784
2.135000,-0.1009,-0.3024,-0.6030,0.682
2.136000,-0.0593,-0.3949,-0.6113,0.730
2.138000,-0.0054,-0.4789,-0.6220,0.785
2.148000,0.0805,-0.5734,-0.4946,0.762
2.150000,0.3474,-0.7657,-0.5112,0.984
2.152000,0.5436,-0.9217,-0.5679,1.211
2.171000,0.6725,-0.9994,-0.4776,1.296
2.172000,0.7236,-0.9894,-0.4166,1.295
2.174000,0.7360,-0.9002,-0.2927,1.199
2.175000,0.7455,-0.7942,-0.3355,1.140
2.177000,0.6012,-0.6581,-0.5259,1.035
2.182000,0.4764,-0.5662,-0.6951,1.015
2.188000,0.3137,-0.4826,-0.8656,1.039
2.193000,0.2211,-0.4145,-0.9698,1.078
2.198000,0.1709,-0.3463,-1.0375,1.107
2.203000,0.3039,-0.2675,-0.9537,1.036
2.215000,0.4996,-0.2867,-0.9229,1.088
2.216000,0.6530,-0.2556,-0.8298,1.086
2.218000,0.7024,-0.2268,-0.7596,1.059
2.233000,0.6632,-0.1609,-0.7695,1.029
2.234000,0.6049,-0.0651,-0.8317,1.030
2.235000,0.5329,0.0498,-0.8269,0.985
2.247000,0.5571,0.1693,-0.8026,0.992
2.248000,0.5534,0.2503,-0.6523,0.891
2.249000,0.5156,0.2595,-0.6852,0.896
2.260000,0.5250,0.1132,-0.8417,0.999
2.261000,0.5231,0.0006,-0.9341,1.071
2.264000,0.5097,-0.0605,-0.7718,0.927
2.269000,0.5466,-0.1214,-0.5465,0.782
2.274000,0.5633,-0.1656,-0.5394,0.797
2.279000,0.5167,-0.1918,-0.5780,0.799
2.284000,0.4548,-0.2037,-0.6016,0.781
2.289000,0.4621,-0.2239,-0.6330,0.815
2.294000,0.4611,-0.2609,-0.5593,0.770
2.299000,0.4605,-0.3134,-0.5366,0.773
2.306000,0.4843,-0.3861,-0.5125,0.804
2.310000,0.4656,-0.3641,-0.5576,0.813
2.315000,0.4139,-0.3793,-0.6178,0.835
2.320000,0.4536,-0.3312,-0.5948,0.818
2.336000,0.5015,-0.3284,-0.5754,0.831
2.338000,0.5089,-0.2718,-0.5534,0.799
2.339000,0.5309,-0.1757,-0.4219,0.700
2.341000,0.4848,-0.1142,-0.3694,0.620
2.345000,0.4411,-0.0038,-0.3685,0.575
2.349000,0.3382,0.0252,-0.3773,0.507
2.367000,0.2678,-0.0034,-0.4237,0.501
2.369000,0.2704,-0.1144,-0.4419,0.531
2.369000,0.2513,-0.1514,-0.3576,0.462
2.370000,0.2416,-0.2457,-0.2849,0.447
2.381000,0.2415,-0.3592,-0.2382,0.494
2.382000,0.2067,-0.4750,-0.1983,0.555
2.385000,0.2083,-0.6326,-0.2127,0.699
2.393000,0.1856,-0.7708,-0.3084,0.851
2.395000,0.1627,-0.9172,-0.3094,0.982
2.400000,0.2331,-1.1075,-0.3342,1.180
2.406000,0.3527,-1.2725,-0.2095,1.337
2.411000,0.4571,-1.4191,-0.0863,1.493
2.416000,0.5097,-1.5211,-0.0610,1.605
2.421000,0.4218,-1.4471,-0.1156,1.512
2.439000,0.4183,-1.3635,-0.1930,1.439
2.440000,0.3886,-1.2476,-0.3217,1.346
2.443000,0.3348,-1.0529,-0.4082,1.178
2.444000,0.2567,-0.8788,-0.4908,1.039
2.446000,0.1564,-0.7324,-0.5492,0.929
2.453000,0.0982,-0.6389,-0.5403,0.842
2.468000,0.1342,-0.6089,-0.5814,0.853
2.469000,0.2059,-0.7070,-0.6438,0.978
2.470000,0.3648,-0.8217,-0.6494,1.109
2.472000,0.5279,-0.9541,-0.5574,1.225
2.482000,0.6155,-1.0719,-0.6639,1.403
2.483000,0.7594,-1.1487,-0.8562,1.621
2.487000,0.8094,-1.1462,-0.7984,1.614
2.494000,0.8663,-1.0896,-0.7486,1.581
2.496000,0.8952,-0.9945,-0.7806,1.549
2.502000,0.9105,-0.9386,-0.8515,1.560
2.506000,0.8631,-0.8550,-0.8838,1.502
2.512000,0.8266,-0.6923,-0.8641,1.382
2.517000,0.7324,-0.4423,-0.8027,1.173
2.523000,0.6372,-0.2356,-0.6187,0.919
2.527000,0.5110,-0.0529,-0.6355,0.817
2.532000,0.3579,-0.0020,-0.7683,0.848
2.537000,0.2372,0.0094,-0.8778,0.909
2.554000,0.2226,0.0542,-0.8318,0.863
2.555000,0.3001,-0.0290,-0.7434,0.802
2.556000,0.3360,-0.2089,-0.7280,0.829
2.557000,0.3753,-0.3311,-0.7344,0.889
2.562000,0.4211,-0.3394,-0.7122,0.894
2.567000,0.4119,-0.3653,-0.8236,0.991
2.583000,0.4535,-0.3597,-0.9092,1.078
2.585000,0.5342,-0.2808,-0.8446,1.038
2.586000,0.5275,-0.1633,-0.7002,0.892
2.587000,0.4823,-0.0994,-0.6486,0.814
2.597000,0.3459,-0.0232,-0.5883,0.683
2.598000,0.2306,0.0556,-0.4601,0.518
2.603000,0.1902,-0.0173,-0.3560,0.404
2.610000,0.1757,-0.0085,-0.2566,0.311
2.613000,0.1405,-0.0329,-0.1899,0.239
2.618000,0.0895,-0.1121,-0.1186,0.186
2.624000,0.0565,-0.1597,-0.0356,0.173
2.628000,0.0811,-0.2167,0.0961,0.250
2.633000,0.1322,-0.3032,0.0357,0.333
2.638000,0.1930,-0.3380,-0.0177,0.390
2.652000,0.1968,-0.4121,0.0442,0.459
2.654000,0.1852,-0.5171,0.0505,0.552
2.655000,0.2765,-0.5561,0.2387,0.665
2.679000,0.3223,-0.5699,0.2498,0.701
2.680000,0.3367,-0.5645,0.2376,0.699
2.681000,0.4375,-0.6177,0.2020,0.783
2.681000,0.4897,-0.5764,0.1321,0.768
2.683000,0.4619,-0.4192,0.0002,0.624
2.684000,0.4704,-0.2539,0.0293,0.535
2.689000,0.5004,-0.1402,0.0902,0.527
2.694000,0.4466,-0.1116,0.1061,0.472
2.699000,0.4393,-0.1632,0.0854,0.476
2.704000,0.4222,-0.1311,0.0975,0.453
2.710000,0.3357,-0.1435,0.0978,0.378
2.714000,0.2834,-0.2110,0.0268,0.354
2.719000,0.2753,-0.2319,-0.0668,0.366
2.724000,0.2119,-0.2123,-0.1346,0.329
2.729000,0.1297,-0.2715,-0.1059,0.319
2.734000,0.1296,-0.3701,-0.0832,0.401
2.740000,0.0598,-0.4527,-0.0553,0.460
2.745000,0.0049,-0.5841,0.1176,0.596
2.749000,-0.0513,-0.7030,0.1830,0.728
2.754000,-0.1925,-0.7773,0.1700,0.819
2.770000,-0.3073,-0.7531,0.0705,0.816
2.771000,-0.3957,-0.7693,0.0947,0.870
2.773000,-0.4197,-0.7901,0.2161,0.920
2.799000,-0.4696,-0.7374,0.2630,0.913
2.800000,-0.5942,-0.7000,0.2153,0.943
2.801000,-0.6230,-0.7172,0.1135,0.957
2.802000,-0.5192,-0.8440,0.0243,0.991
2.803000,-0.2194,-0.9764,-0.1264,1.009
2.804000,-0.0199,-1.0857,-0.2075,1.106
2.806000,0.0703,-1.1566,-0.2230,1.180
2.813000,0.1946,-1.1637,-0.1713,1.192
2.815000,0.2040,-1.0690,-0.0919,1.092
2.821000,0.2659,-0.9133,-0.1347,0.961
2.826000,0.3491,-0.8329,0.0273,0.903
2.830000,0.3677,-0.6793,-0.0568,0.775
2.835000,0.2615,-0.4816,-0.0940,0.556
2.840000,0.1137,-0.2251,-0.1760,0.308
2.845000,0.0252,-0.0860,-0.2270,0.244
2.851000,-0.0886,0.0338,-0.2220,0.241
2.855000,-0.1479,0.1081,-0.1663,0.247
2.860000,-0.2463,0.0504,-0.1202,0.279
2.866000,-0.2919,0.0177,-0.1367,0.323
2.871000,-0.1989,-0.0991,-0.0508,0.228
2.887000,-0.0813,-0.2486,0.0188,0.262
2.889000,-0.0163,-0.2764,0.0291,0.278
2.889000,-0.0134,-0.3139,0.0262,0.315
2.891000,-0.0769,-0.3207,0.0522,0.334
2.914000,-0.1194,-0.3347,-0.0339,0.357
2.916000,-0.1371,-0.3227,-0.0781,0.359
2.916000,-0.2413,-0.2502,-0.1941,0.398
2.917000,-0.2970,-0.2344,-0.4382,0.579
2.917000,-0.3333,-0.0936,-0.5166,0.622
2.922000,-0.4093,-0.1283,-0.4955,0.655
2.929000,-0.3500,-0.3372,-0.4556,0.666
2.931000,-0.1624,-0.4333,-0.4141,0.621
2.936000,0.0697,-0.3859,-0.3319,0.514
2.941000,0.4283,-0.3111,-0.2446,0.583
2.947000,1.2644,0.0827,0.0499,1.268
2.952000,2.2350,0.8693,0.5338,2.457
2.957000,2.1475,1.7830,0.6933,2.876
2.962000,1.4352,2.5646,0.3655,2.962
2.967000,0.4998,3.1852,0.0126,3.224
2.972000,-0.1434,3.5060,-0.4354,3.536
2.989000,-0.3554,3.4970,-0.4643,3.546
2.991000,-0.2610,3.5029,-0.1673,3.517
2.993000,-0.1038,3.6791,0.1671,3.684
2.994000,-0.0358,3.8163,0.0205,3.817
2.997000,0.0447,3.9435,-0.0049,3.944
3.002000,0.0158,3.8124,-0.2610,3.821
3.019000,-0.0228,3.4961,-0.5388,3.537
3.021000,0.1635,3.1624,-0.6383,3.230
3.022000,0.4441,2.6767,-0.4824,2.756
3.023000,0.7004,2.0761,-0.3498,2.219
3.032000,0.7017,1.6146,-0.2533,1.779
3.033000,0.5215,1.2454,-0.3905,1.406
3.038000,0.3711,0.9222,-0.3924,1.069
3.044000,0.2418,0.6163,-0.5360,0.852
3.048000,0.0898,0.3816,-0.4770,0.617
3.052000,0.0721,0.1487,-0.4540,0.483
3.058000,-0.0166,-0.0785,-0.3313,0.341
3.063000,-0.1758,-0.3511,-0.2798,0.482
3.068000,-0.2622,-0.5413,-0.2259,0.642
3.074000,-0.3464,-0.7207,-0.3503,0.873
3.078000,-0.4130,-0.7935,-0.1437,0.906
3.083000,-0.4516,-0.9439,-0.1849,1.063
3.089000,-0.3938,-0.9301,-0.1672,1.024
3.106000,-0.2680,-0.8506,-0.1348,0.902
3.110000,-0.1083,-0.6613,0.0319,0.671
3.111000,-0.1306,-0.4220,0.0639,0.446
3.111000,-0.1887,-0.1341,0.1078,0.255
3.113000,-0.3134,-0.0270,-0.0780,0.324
3.118000,-0.3877,0.2258,0.0306,0.450
3.124000,-0.3154,0.4724,0.1152,0.580
3.135000,-0.1985,0.4246,-0.1914,0.506
3.136000,-0.1563,0.4364,-0.0597,0.467
3.138000,-0.1000,0.3715,0.0568,0.389
3.159000,0.1186,0.2060,0.0767,0.250
3.160000,0.3004,0.1048,0.1392,0.347
3.160000,0.3098,0.0212,0.1698,0.354
3.161000,0.3587,-0.1550,0.0943,0.402
3.163000,0.3915,-0.1633,0.0052,0.424
3.169000,0.3209,-0.3829,0.0168,0.500
3.174000,0.2102,-0.3630,-0.1108,0.434
3.179000,0.1444,-0.3565,-0.2085,0.438
3.184000,0.0117,-0.2832,-0.2254,0.362
3.189000,0.0758,-0.3632,-0.1905,0.417
3.194000,0.1278,-0.3480,-0.0998,0.384
3.199000,0.1358,-0.3057,0.1078,0.351
3.205000,0.0777,-0.2615,0.2076,0.343
3.218000,-0.0235,-0.2107,0.1603,0.266
3.219000,-0.1899,-0.2597,0.1184,0.343
3.219000,-0.1935,-0.1610,0.1428,0.289
3.241000,-0.2237,-0.0822,0.1818,0.300
3.242000,-0.2699,-0.0363,0.0776,0.283
3.243000,-0.3208,0.0641,0.1833,0.375
3.243000,-0.2677,-0.0131,0.1125,0.291
3.244000,-0.2655,0.0372,0.1030,0.287
3.250000,-0.0844,-0.0733,0.3043,0.324
3.255000,-0.0687,-0.1064,0.3242,0.348
3.259000,-0.0355,-0.1385,0.4085,0.433
3.265000,0.0151,-0.2281,0.4778,0.530
3.270000,0.0833,-0.3714,0.2479,0.454
3.275000,0.0159,-0.3112,0.1070,0.329
3.280000,0.0135,-0.3729,-0.0106,0.373
3.286000,-0.0728,-0.4580,-0.1534,0.488
3.290000,-0.0565,-0.4576,-0.1464,0.484
3.302000,-0.1429,-0.5046,-0.2728,0.591
3.303000,-0.1342,-0.5771,-0.4148,0.723
3.306000,-0.0950,-0.2625,-0.1424,0.313
3.334000,-0.0982,0.0815,0.1491,0.196
3.335000,-0.2407,0.2998,-0.0045,0.384
3.335000,-0.3477,0.6578,-0.2600,0.788
3.336000,-0.2443,1.0441,-0.2212,1.095
3.337000,-0.2341,1.3617,-0.2723,1.408
3.338000,-0.2336,1.5749,-0.6439,1.717
3.347000,-0.1906,1.8260,-0.7923,2.000
3.349000,-0.2581,2.1208,-0.7372,2.260
3.351000,-0.2275,2.1209,-0.8023,2.279
3.357000,-0.0965,1.8274,-0.9015,2.040
3.362000,0.1081,1.5095,-0.8578,1.740
3.366000,0.3950,1.1556,-0.9264,1.533
3.371000,0.7064,0.6875,-1.0902,1.470
3.376000,0.8931,0.2877,-1.0200,1.386
3.381000,1.0276,0.0392,-0.9215,1.381
3.387000,1.0736,-0.0116,-0.6158,1.238
3.392000,1.0424,0.0228,-0.1640,1.055
3.397000,0.9579,0.0565,0.1729,0.975
3.402000,0.8177,0.1067,0.4500,0.939
3.409000,0.6164,0.1809,0.5799,0.865
3.412000,0.2968,0.2603,0.6356,0.748
3.417000,0.1155,0.2854,0.5563,0.636
3.422000,-0.0240,0.2323,0.4869,0.540
3.439000,-0.1534,0.1755,0.3439,0.415
3.441000,-0.1972,0.0840,0.1323,0.252
3.442000,-0.3423,0.0606,-0.0105,0.348
3.444000,-0.4039,0.0324,-0.1692,0.439
3.447000,-0.3826,-0.0244,-0.3546,0.522
3.456000,-0.4434,-0.0452,-0.4160,0.610
3.457000,-0.4658,-0.0432,-0.3784,0.602
3.482000,-0.4573,-0.0529,-0.3016,0.550
3.484000,-0.4308,-0.1077,-0.2821,0.526
3.485000,-0.3733,-0.1119,-0.1868,0.432
3.485000,-0.3598,-0.1576,-0.0373,0.395
3.486000,-0.4346,-0.1573,0.0781,0.469
3.488000,-0.4720,-0.1960,0.0674,0.516
3.495000,-0.4676,-0.3324,0.0521,0.576
3.497000,-0.4492,-0.4756,0.0601,0.657
3.503000,-0.3784,-0.5146,0.0046,0.639
3.509000,-0.3109,-0.5180,-0.1898,0.633
3.513000,-0.2881,-0.4546,-0.1507,0.559
3.518000,-0.2364,-0.3033,0.0024,0.385
3.522000,-0.2355,-0.3114,-0.0486,0.393
3.535000,-0.3381,-0.7431,-0.2691,0.860
3.536000,-0.3452,-0.6035,-0.2838,0.751
3.537000,-0.3783,-0.4646,-0.2946,0.668
3.557000,-0.4579,-0.4424,-0.2932,0.701
3.558000,-0.4788,-0.2591,-0.0437,0.546
3.559000,-0.5023,-0.1492,0.1470,0.544
3.560000,-0.5343,-0.1540,0.2810,0.623
3.563000,-0.5209,-0.1035,0.0256,0.532
3.568000,-0.4859,0.0405,-0.1783,0.519
3.573000,-0.4382,0.2086,-0.2110,0.529
3.578000,-0.3186,0.3038,-0.1721,0.473
3.583000,-0.2026,0.2878,-0.2634,0.440
3.589000,-0.1457,0.3185,-0.3617,0.504
3.593000,-0.1276,0.3456,-0.5896,0.695
3.599000,-0.0890,0.4190,-0.7151,0.834
3.604000,-0.0500,0.4478,-0.7339,0.861
3.609000,-0.0090,0.4703,-0.6275,0.784
3.613000,-0.0153,0.5358,-0.5252,0.750
3.619000,-0.0078,0.5640,-0.4104,0.698
3.623000,-0.0048,0.5316,-0.3132,0.617
3.630000,-0.0279,0.5044,-0.2195,0.551
3.634000,-0.0514,0.4611,-0.0409,0.466
3.639000,-0.0036,0.3482,0.2297,0.417
3.657000,-0.0197,0.3248,0.4670,0.569
3.659000,-0.0421,0.2497,0.6220,0.672
3.659000,-0.0353,0.1063,0.8086,0.816
3.662000,0.0140,0.0669,1.0511,1.053
3.664000,0.0700,0.0355,1.2524,1.255
3.669000,0.1292,-0.0801,1.3730,1.381
3.674000,0.1426,-0.2451,1.3719,1.401
3.687000,0.2040,-0.3198,1.3180,1.371
3.688000,0.2513,-0.3870,1.1482,1.237
3.690000,0.2533,-0.3859,0.8700,0.985
3.700000,0.2588,-0.4146,0.6467,0.811
3.701000,0.3237,-0.4302,0.4043,0.673
3.705000,0.3567,-0.3789,0.1155,0.533
3.714000,0.3697,-0.3589,-0.1164,0.528
3.715000,0.4295,-0.3606,-0.3351,0.653
3.720000,0.4775,-0.2921,-0.4871,0.742
3.726000,0.5091,-0.2336,-0.4691,0.731
3.730000,0.5088,-0.2138,-0.4354,0.703
3.735000,0.4897,-0.1956,-0.3463,0.631
3.741000,0.5114,-0.1609,-0.2434,0.589
3.746000,0.5082,-0.1623,-0.0824,0.540
3.751000,0.5044,-0.1172,0.0394,0.519
3.756000,0.5452,-0.0593,0.1868,0.579
3.774000,0.5161,-0.0564,0.2518,0.577
3.775000,0.5341,-0.0931,0.2585,0.601
3.777000,0.5683,-0.1082,0.2612,0.635
3.777000,0.6023,-0.0924,0.2529,0.660
3.780000,0.6172,-0.0564,0.2050,0.653
3.786000,0.6500,-0.0158,0.2179,0.686
3.791000,0.6492,-0.0364,0.2106,0.684
3.806000,0.6126,-0.0200,0.1807,0.639
3.807000,0.5885,-0.0323,0.1231,0.602
3.808000,0.5877,-0.0686,0.1096,0.602
3.820000,0.5900,-0.0666,0.0799,0.599
3.821000,0.5787,-0.0421,0.0516,0.582
3.822000,0.5738,-0.0800,0.0650,0.583
3.833000,0.5383,-0.0881,0.0912,0.553
3.834000,0.5320,-0.1406,0.0818,0.556
3.837000,0.5298,-0.1610,0.1744,0.581
3.845000,0.5004,-0.1840,0.1487,0.553
3.846000,0.4871,-0.2048,0.1854,0.560
3.852000,0.4575,-0.1923,0.2366,0.550
3.857000,0.3985,-0.1346,0.3049,0.520
3.871000,0.4006,-0.1260,0.3503,0.547
3.873000,0.4017,-0.1031,0.3683,0.555
3.873000,0.4076,-0.0706,0.3817,0.563
3.898000,0.4127,-0.0430,0.3417,0.537
3.899000,0.3830,-0.0309,0.3536,0.522
3.900000,0.3928,0.0124,0.3867,0.551
3.900000,0.4506,0.0317,0.3799,0.590
3.901000,0.4450,0.0248,0.3609,0.574
3.902000,0.4757,0.0096,0.2868,0.556
3.907000,0.4638,-0.0164,0.1693,0.494
3.913000,0.4174,-0.0567,0.1552,0.449
3.917000,0.3916,-0.0957,0.1105,0.418
3.922000,0.3409,-0.1180,0.0759,0.369
3.929000,0.2818,-0.1498,0.0608,0.325
3.933000,0.2693,-0.1707,0.0005,0.319
3.938000,0.2818,-0.1736,-0.0298,0.332
3.944000,0.2920,-0.1801,-0.0289,0.344
3.948000,0.2748,-0.1412,-0.0423,0.312
3.953000,0.2817,-0.1406,-0.0149,0.315
3.960000,0.2578,-0.1484,0.0185,0.298
3.963000,0.2579,-0.1204,0.0544,0.290
3.968000,0.2713,-0.0960,0.0945,0.303
3.973000,0.2992,-0.1421,0.1373,0.359
3.989000,0.3322,-0.1297,0.1518,0.388
3.990000,0.2870,-0.0702,0.1651,0.338
3.991000,0.2673,-0.0493,0.1429,0.307
3.993000,0.2217,-0.0061,0.1981,0.297
4.001000,0.2276,0.0095,0.1555,0.276
4.003000,0.2096,0.0309,0.1630,0.267
4.008000,0.2153,0.0368,0.1392,0.259
4.015000,0.2458,0.0758,0.1036,0.277
4.018000,0.2202,0.0670,0.0562,0.237
4.037000,0.2339,0.0891,0.0314,0.252
4.038000,0.2237,0.0885,0.0327,0.243
4.038000,0.1959,0.0925,0.0314,0.219
4.039000,0.1931,0.0705,0.0478,0.211
4.048000,0.1560,0.0640,0.0355,0.172
4.049000,0.1572,0.0529,0.0637,0.178
4.054000,0.1382,0.0489,0.0753,0.165
4.058000,0.1148,0.0593,0.0798,0.152
4.064000,0.1009,0.0257,0.1487,0.182
4.069000,0.1049,-0.0088,0.1342,0.171
4.074000,0.1197,-0.0501,0.1394,0.190
4.090000,0.0953,-0.1112,0.0986,0.176
4.092000,0.1055,-0.1088,0.0465,0.159
4.093000,0.1086,-0.1207,0.0115,0.163
4.094000,0.0880,-0.1848,-0.0218,0.206
4.099000,0.0604,-0.2020,-0.0146,0.211
4.104000,0.0769,-0.1847,-0.0255,0.202
4.114000,0.0967,-0.1853,-0.0567,0.217
4.115000,0.1221,-0.1977,-0.0818,0.246
4.119000,0.1139,-0.1780,-0.0882,0.229
4.135000,0.1435,-0.1786,-0.1152,0.256
4.136000,0.1751,-0.1638,-0.1330,0.274
4.137000,0.1562,-0.1194,-0.1488,0.247
4.140000,0.1882,-0.1348,-0.1270,0.264
4.146000,0.2104,-0.0966,-0.1831,0.295
4.150000,0.2524,-0.0932,-0.2261,0.351
4.155000,0.2559,-0.1194,-0.2215,0.359
4.160000,0.2965,-0.1408,-0.2459,0.410
4.165000,0.3134,-0.0363,-0.2632,0.411
4.170000,0.2588,-0.0123,-0.2048,0.330
4.175000,0.2001,-0.0597,-0.2322,0.312
4.180000,0.1847,-0.0533,-0.2333,0.302
4.185000,0.1425,-0.0091,-0.2463,0.285
4.190000,0.0913,-0.0104,-0.3187,0.332
4.210000,0.0558,-0.0176,-0.3088,0.314
4.212000,0.0050,-0.0152,-0.2899,0.290
4.213000,-0.0109,0.0263,-0.2691,0.271
4.214000,-0.1383,0.0436,-0.2502,0.289
4.215000,-0.1961,0.0324,-0.1251,0.235
4.220000,-0.3367,0.0259,-0.1272,0.361
4.225000,-0.5157,0.1418,-0.1123,0.546
4.237000,-0.5792,0.1405,-0.0021,0.596
4.239000,-0.6074,0.1215,0.0626,0.623
4.241000,-0.6730,0.1767,0.1654,0.715
4.250000,-0.7327,0.1745,0.1976,0.779
4.252000,-0.7459,0.1914,0.2922,0.824
4.256000,-0.7283,0.2253,0.3751,0.850
4.263000,-0.7468,0.1898,0.4452,0.890
4.266000,-0.7510,0.1712,0.4967,0.917
4.271000,-0.7841,0.1826,0.5452,0.972
4.278000,-0.7562,0.2144,0.5632,0.967
4.281000,-0.7564,0.1926,0.5865,0.976
4.287000,-0.6946,0.1864,0.5926,0.932
4.292000,-0.6356,0.1721,0.6152,0.901
4.297000,-0.5961,0.1268,0.5956,0.852
4.302000,-0.5486,0.1212,0.6139,0.832
4.307000,-0.4250,0.0835,0.5899,0.732
4.321000,-0.3619,0.0687,0.5500,0.662
4.322000,-0.3195,0.0554,0.4979,0.594
4.323000,-0.2847,0.0350,0.4156,0.505
4.328000,-0.2297,0.0279,0.3088,0.386
4.347000,-0.2144,-0.0102,0.2669,0.343
4.348000,-0.1849,-0.0243,0.1753,0.256
4.348000,-0.1938,-0.0419,0.0875,0.217
4.349000,-0.1620,-0.0428,0.0641,0.179
4.353000,-0.1579,-0.0186,0.0597,0.170
4.357000,-0.1360,-0.1139,0.0575,0.186
4.363000,-0.1262,-0.1087,0.0059,0.167
4.367000,-0.1092,-0.1453,-0.0366,0.185
4.373000,-0.1211,-0.1282,-0.0498,0.183
4.377000,-0.1067,-0.1027,-0.0419,0.154
4.383000,-0.0745,-0.1180,0.0191,0.141
4.388000,-0.0758,-0.0819,0.0304,0.116
4.393000,-0.0865,-0.0686,0.0484,0.121
4.398000,-0.1118,-0.0434,0.0574,0.133
4.403000,-0.1073,0.0213,0.0421,0.117
4.408000,-0.0767,0.0452,0.0564,0.105
4.425000,-0.0725,0.0464,0.1133,0.142
4.427000,-0.0624,0.0571,0.1891,0.207
4.428000,-0.0537,0.1061,0.2229,0.253
4.430000,-0.0484,0.1299,0.2243,0.264
4.433000,-0.0321,0.1322,0.2618,0.295
4.438000,-0.0360,0.1057,0.2922,0.313
4.457000,-0.0302,0.1557,0.2835,0.325
4.458000,-0.0884,0.1757,0.2452,0.314
4.459000,-0.1046,0.1873,0.3329,0.396
4.460000,-0.1408,0.1594,0.3121,0.378
4.472000,-0.1744,0.1483,0.3383,0.408
4.473000,-0.2006,0.1563,0.3407,0.425
4.474000,-0.1894,0.1164,0.3171,0.387
4.486000,-0.1636,0.0812,0.2902,0.343
4.487000,-0.1984,0.0700,0.2907,0.359
4.489000,-0.1959,0.0157,0.3416,0.394
4.497000,-0.1599,-0.0398,0.2194,0.274
4.499000,-0.1248,-0.0020,0.1632,0.205
4.504000,-0.1396,0.0034,0.0648,0.154
4.509000,-0.1221,0.0206,0.0651,0.140
4.524000,-0.1238,0.0162,0.0599,0.138
4.525000,-0.0873,0.0190,0.0663,0.111
4.525000,-0.0605,0.0374,0.0881,0.113
4.552000,0.0248,0.0151,0.1074,0.111
4.553000,0.0491,-0.0240,0.1256,0.137
4.553000,0.0666,-0.0332,0.1236,0.144
4.554000,0.1074,-0.1058,0.1268,0.197
4.554000,0.1126,-0.1450,0.1521,0.238
4.555000,0.1196,-0.1686,0.1789,0.273
4.565000,0.1370,-0.1472,0.1155,0.232
4.566000,0.0740,-0.1260,0.0791,0.166
4.571000,0.0142,-0.0789,0.0634,0.102
4.576000,-0.0388,-0.0454,0.0111,0.061
4.580000,-0.0701,-0.0062,-0.0220,0.074
4.586000,-0.0692,0.0161,-0.0656,0.097
4.590000,-0.1279,0.0714,-0.0819,0.168
4.595000,-0.1469,0.1049,-0.0782,0.197
4.600000,-0.1790,0.1204,-0.0474,0.221
4.606000,-0.1789,0.1368,0.0032,0.225
4.611000,-0.1753,0.1509,0.0059,0.231
4.616000,-0.1966,0.1565,-0.0090,0.251
4.620000,-0.1631,0.1407,0.0476,0.221
4.626000,-0.2104,0.1499,0.0256,0.260
4.641000,-0.2120,0.1115,0.0408,0.243
4.642000,-0.2004,0.1138,0.0442,0.235
4.643000,-0.2149,0.1232,0.0322,0.250
4.671000,-0.2029,0.1146,0.0312,0.235
4.673000,-0.1920,0.1026,0.0101,0.218
4.673000,-0.1704,0.0906,0.0308,0.195
4.674000,-0.1586,0.1036,0.0383,0.193
4.675000,-0.1111,0.0477,0.0458,0.129
4.676000,-0.1151,0.0279,0.0344,0.123
4.677000,-0.1380,-0.0013,0.0564,0.149
4.687000,-0.1359,0.0007,0.0286,0.139
4.688000,-0.1338,0.0146,0.0392,0.140
4.692000,-0.1412,0.0117,0.0250,0.144
4.700000,-0.1689,0.0410,0.0134,0.174
4.702000,-0.1585,0.0262,-0.0015,0.161
4.707000,-0.1755,0.0281,-0.0161,0.179
4.712000,-0.2377,0.0503,-0.0328,0.245
4.716000,-0.2199,0.0604,-0.0633,0.237
4.722000,-0.2534,0.0658,-0.0842,0.275
4.727000,-0.2737,0.0652,-0.0991,0.298
4.731000,-0.2736,0.0978,-0.1149,0.312
4.737000,-0.2923,0.0826,-0.1367,0.333
4.742000,-0.3098,0.0878,-0.1442,0.353
4.757000,-0.3354,0.0916,-0.1578,0.382
4.758000,-0.3262,0.0682,-0.1784,0.378
4.759000,-0.3242,0.0721,-0.1634,0.370
4.781000,-0.3033,0.0452,-0.0823,0.317
4.783000,-0.3062,-0.0242,-0.0860,0.319
4.783000,-0.3008,-0.0040,-0.0647,0.308
4.784000,-0.2599,0.0006,-0.0591,0.267
4.784000,-0.2383,-0.0102,-0.0343,0.241
4.788000,-0.2197,-0.0340,0.0140,0.223
4.793000,-0.1943,-0.0539,-0.0294,0.204
4.797000,-0.1832,-0.0772,-0.0474,0.204
4.802000,-0.1879,-0.0848,-0.0048,0.206
4.808000,-0.1571,-0.0864,-0.0064,0.179
4.812000,-0.1540,-0.0737,0.0040,0.171
4.818000,-0.1700,-0.0373,0.0073,0.174
4.823000,-0.1503,-0.0344,0.0179,0.155
4.838000,-0.1866,-0.0244,-0.0058,0.188
4.839000,-0.2047,-0.0453,-0.0171,0.210
4.840000,-0.2131,-0.0471,-0.0142,0.219
4.847000,-0.2239,-0.0381,0.0069,0.227
4.860000,-0.2286,0.0088,-0.0458,0.233
4.861000,-0.2333,0.0138,-0.0827,0.248
4.862000,-0.2320,0.0341,-0.1016,0.256
4.864000,-0.2355,0.0186,-0.1299,0.270
4.868000,-0.2533,0.0342,-0.1403,0.292
4.874000,-0.2378,0.0164,-0.1411,0.277
4.879000,-0.2581,0.0296,-0.1431,0.297
4.883000,-0.2475,0.0808,-0.1285,0.290
4.888000,-0.2562,0.0757,-0.1082,0.288
4.893000,-0.2435,0.0814,-0.1025,0.276
4.899000,-0.2346,0.0361,-0.1168,0.265
4.904000,-0.1652,0.0042,-0.0764,0.182
4.909000,-0.0975,-0.0275,-0.0460,0.111
4.914000,-0.1407,-0.0222,-0.0467,0.150
4.919000,-0.1145,-0.0347,-0.0486,0.129
4.924000,-0.1205,-0.0472,-0.0648,0.145
4.930000,-0.1573,-0.0690,-0.0964,0.197
4.934000,-0.1818,-0.0943,-0.1159,0.235
4.939000,-0.1765,-0.1122,-0.0915,0.228
4.946000,-0.1557,-0.0636,-0.0996,0.195
4.950000,-0.2218,-0.0439,-0.1175,0.255
4.955000,-0.2412,-0.0742,-0.1414,0.289
4.960000,-0.2416,-0.0674,-0.0942,0.268
4.976000,-0.2504,-0.0144,-0.0796,0.263
4.977000,-0.2461,0.0084,-0.0867,0.261
4.978000,-0.2777,0.0193,-0.0535,0.283
4.980000,-0.2521,0.0063,-0.0491,0.257
4.984000,-0.2398,0.0065,-0.0545,0.246
4.990000,-0.2346,0.0054,-0.0491,0.240
5.005000,-0.2413,-0.0301,-0.0476,0.248
5.006000,-0.2727,-0.0642,-0.0617,0.287
5.007000,-0.2576,-0.0790,-0.0569,0.275
5.011000,-0.2415,-0.1115,-0.0997,0.284
5.020000,-0.2029,-0.1153,-0.0129,0.234
5.022000,-0.1588,-0.1036,-0.0193,0.191
5.025000,-0.1744,-0.0920,-0.0473,0.203
5.032000,-0.1531,-0.0887,-0.0394,0.181
5.036000,-0.1700,-0.0749,-0.0565,0.194
5.040000,-0.1726,-0.0848,-0.0652,0.203
5.046000,-0.1587,-0.0615,-0.0870,0.191
5.051000,-0.1354,-0.0490,-0.0529,0.153
5.056000,-0.1526,-0.0462,-0.0938,0.185
5.061000,-0.1779,-0.0232,-0.0967,0.204
5.079000,-0.1653,0.0068,-0.0926,0.190
5.082000,-0.1836,0.0175,-0.1028,0.211
5.083000,-0.1769,0.0459,-0.1225,0.220
5.087000,-0.1810,0.0741,-0.0461,0.201
5.088000,-0.1732,0.0735,-0.0786,0.204
5.091000,-0.1382,0.0669,-0.0574,0.164
5.112000,-0.1260,0.0819,-0.0875,0.174
5.114000,-0.0974,0.0622,-0.1068,0.157
5.114000,-0.0785,0.0190,-0.1130,0.139
5.115000,-0.0776,0.0580,-0.1311,0.163
5.117000,-0.0638,-0.0042,-0.1183,0.134
5.121000,-0.0646,-0.0029,-0.0904,0.111
5.127000,0.0292,-0.0146,-0.1162,0.121
5.138000,0.0582,-0.0310,-0.1276,0.144
5.139000,0.0742,-0.0426,-0.1223,0.149
5.142000,0.0654,-0.0328,-0.1030,0.126
5.150000,0.0745,-0.0694,-0.0970,0.141
5.152000,0.0622,-0.0997,-0.1337,0.178
5.157000,0.0690,-0.0848,-0.1574,0.192
5.173000,0.0519,-0.0485,-0.2309,0.242
5.174000,0.0111,-0.0648,-0.1733,0.185
5.174000,0.0110,-0.0514,-0.1605,0.169
5.177000,-0.0092,-0.0191,-0.1361,0.138
5.194000,-0.0212,-0.0202,-0.0456,0.054
5.196000,-0.0236,-0.0392,0.0797,0.092
5.196000,-0.0081,-0.0259,0.1460,0.149
5.198000,-0.0069,-0.0222,0.1528,0.155
5.202000,0.0253,-0.0245,0.1954,0.199
5.207000,-0.0047,-0.0125,0.1774,0.178
5.213000,-0.0038,-0.0159,0.1040,0.105
5.218000,0.0009,-0.0370,0.0551,0.066
5.223000,0.0245,-0.0236,-0.0088,0.035
5.228000,0.0085,-0.0174,-0.0201,0.028
5.233000,0.0043,0.0030,-0.0243,0.025
5.238000,0.0046,0.0032,-0.0513,0.052
5.243000,0.0394,0.0199,-0.0578,0.073
5.247000,0.0724,0.0568,-0.0392,0.100
5.253000,0.0851,0.0328,-0.0292,0.096
5.258000,0.1106,0.0244,0.0199,0.115
5.263000,0.1418,-0.0064,0.0246,0.144
5.268000,0.1620,-0.0572,0.0280,0.174
5.274000,0.1963,-0.1266,-0.0056,0.234
5.281000,0.2090,-0.1705,-0.0073,0.270
5.285000,0.2097,-0.1772,0.0204,0.275
5.289000,0.1948,-0.1495,0.0488,0.250
5.294000,0.1775,-0.1612,0.0814,0.253
5.311000,0.2194,-0.1561,0.0649,0.277
5.312000,0.2357,-0.1605,0.1242,0.311
5.313000,0.2400,-0.1304,0.0454,0.277
5.314000,0.2667,-0.1100,0.0777,0.299
5.319000,0.2848,-0.0660,0.0768,0.302
5.324000,0.2577,-0.0283,0.0538,0.265
5.341000,0.2661,0.0034,0.0575,0.272
5.343000,0.2790,0.0052,0.0334,0.281
5.343000,0.2680,0.0118,0.0622,0.275
5.356000,0.2438,-0.0338,0.0531,0.252
5.357000,0.2530,-0.0742,-0.0315,0.265
5.358000,0.2762,-0.1058,-0.0285,0.297
5.359000,0.2966,-0.1052,0.0325,0.316
5.370000,0.3014,-0.1686,0.0062,0.345
5.372000,0.2859,-0.1900,0.0036,0.343
5.375000,0.3097,-0.1910,-0.0112,0.364
5.381000,0.3119,-0.2169,-0.0025,0.380
5.384000,0.3081,-0.2356,0.0058,0.388
5.388000,0.3103,-0.2055,0.0553,0.376
5.393000,0.3136,-0.2195,0.0687,0.389
5.409000,0.3051,-0.1931,0.0831,0.370
5.410000,0.2978,-0.1479,0.1129,0.351
5.410000,0.2964,-0.1327,0.1082,0.342
5.433000,0.2903,-0.1579,0.1394,0.359
5.434000,0.2464,-0.0915,0.1529,0.304
5.435000,0.2290,-0.0447,0.1369,0.271
5.435000,0.2474,-0.0421,0.1238,0.280
5.436000,0.2263,-0.0276,0.0860,0.244
5.440000,0.2030,0.0510,0.0715,0.221
5.445000,0.1810,0.0754,0.0513,0.203
5.450000,0.1949,0.0701,0.0444,0.212
5.455000,0.2001,0.0826,0.0306,0.219
5.460000,0.1838,0.1105,-0.0270,0.216
5.465000,0.1866,0.1287,0.0036,0.227
5.470000,0.1940,0.0992,0.0053,0.218
5.475000,0.1992,0.1127,-0.0429,0.233
5.480000,0.2080,0.1272,-0.0600,0.251
5.485000,0.2015,0.1332,-0.0448,0.246
5.490000,0.2033,0.1096,-0.0485,0.236
5.495000,0.1946,0.1514,-0.0199,0.247
5.500000,0.1897,0.1596,0.0277,0.249
5.506000,0.1695,0.0942,0.0611,0.203
5.511000,0.1627,0.0910,0.0993,0.211
5.525000,0.1548,0.0499,0.1093,0.196
5.526000,0.1410,0.0081,0.0342,0.145
5.527000,0.1249,-0.0429,-0.0032,0.132
5.550000,0.1602,-0.0294,-0.0107,0.163
5.551000,0.1527,-0.0351,-0.0295,0.159
5.553000,0.1275,-0.0456,0.0333,0.139
5.554000,0.1428,-0.0549,0.0334,0.157
5.554000,0.1141,0.0024,0.0521,0.126
5.556000,0.1093,-0.0120,0.0576,0.124
5.561000,0.1176,0.0022,0.0725,0.138
5.566000,0.1376,-0.0075,0.0258,0.140
5.572000,0.1386,-0.0052,-0.0108,0.139
5.577000,0.1417,-0.0158,0.0079,0.143
5.581000,0.1625,0.0129,-0.0054,0.163
5.587000,0.1843,-0.0109,-0.0408,0.189
5.592000,0.1761,0.0071,-0.0616,0.187
5.598000,0.2070,0.0049,-0.0834,0.223
5.602000,0.2105,0.0097,-0.1133,0.239
5.607000,0.2328,0.0241,-0.1274,0.267
5.612000,0.2359,0.0229,-0.1322,0.271
5.625000,0.2674,0.0253,-0.1132,0.291
5.626000,0.2843,0.0609,-0.1311,0.319
5.627000,0.2773,0.0725,-0.1443,0.321
5.650000,0.2847,0.0804,-0.1325,0.324
5.651000,0.2848,0.0693,-0.1338,0.322
5.651000,0.2991,0.0239,-0.1661,0.343
5.652000,0.3025,0.0275,-0.1317,0.331
5.653000,0.2797,0.0359,-0.1248,0.308
5.658000,0.2975,-0.0330,-0.1205,0.323
5.662000,0.3198,-0.0787,-0.1188,0.350
5.667000,0.3207,-0.1087,-0.1161,0.358
5.673000,0.3204,-0.1467,-0.0827,0.362
5.678000,0.3168,-0.1964,-0.0630,0.378
5.683000,0.3050,-0.1936,-0.0258,0.362
5.688000,0.3185,-0.2407,0.0441,0.402
5.693000,0.2903,-0.2280,0.0694,0.376
5.698000,0.3041,-0.2618,0.0824,0.410
5.703000,0.3214,-0.2325,0.1060,0.411
5.708000,0.3293,-0.2295,0.1080,0.416
5.714000,0.3407,-0.2124,0.1075,0.416
5.718000,0.3521,-0.2382,0.1380,0.447
5.723000,0.3419,-0.2186,0.1691,0.440
5.728000,0.3581,-0.1969,0.1488,0.435
5.744000,0.3551,-0.2134,0.1557,0.443
5.745000,0.3400,-0.2085,0.1826,0.439
5.746000,0.3621,-0.2073,0.1229,0.435
5.772000,0.3757,-0.2073,0.1202,0.446
5.773000,0.3620,-0.2254,0.1732,0.460
5.774000,0.3651,-0.2267,0.1623,0.459
5.774000,0.3850,-0.1971,0.1643,0.463
5.775000,0.3691,-0.1532,0.2127,0.453
5.775000,0.3402,-0.1177,0.2345,0.430
5.785000,0.3569,-0.1075,0.2623,0.456
5.786000,0.3462,-0.0459,0.2661,0.439
5.789000,0.3284,-0.0106,0.2953,0.442
5.795000,0.3022,-0.0160,0.3092,0.433
5.799000,0.2964,0.0121,0.3271,0.442
5.804000,0.2966,0.0247,0.3525,0.461
5.810000,0.2909,0.0194,0.3366,0.445
5.829000,0.2563,0.0285,0.3524,0.437
5.830000,0.2684,0.0377,0.3326,0.429
5.831000,0.2480,0.0757,0.2894,0.389
5.832000,0.2490,0.0766,0.2788,0.382
5.834000,0.2821,0.0860,0.2184,0.367
5.839000,0.2669,0.1039,0.2205,0.361
5.844000,0.3124,0.1291,0.1976,0.392
5.857000,0.3133,0.1281,0.1761,0.382
5.858000,0.3248,0.1355,0.1380,0.378
5.860000,0.3323,0.1394,0.0761,0.368
5.870000,0.2809,0.1865,0.0074,0.337
5.871000,0.3722,0.0927,-0.0195,0.384
5.876000,0.4155,0.0051,-0.0323,0.417
5.883000,0.3752,-0.0156,-0.0247,0.376
5.886000,0.3759,0.0267,-0.0050,0.377
5.891000,0.3697,-0.0038,0.0697,0.376
5.895000,0.3447,-0.0375,0.1173,0.366
5.900000,0.3511,-0.0804,0.1939,0.409
5.905000,0.3445,-0.0873,0.2092,0.412
5.911000,0.3261,-0.1308,0.2359,0.423
5.915000,0.3256,-0.1549,0.1596,0.394
5.921000,0.3217,-0.1716,0.1045,0.379
5.925000,0.3226,-0.2132,0.0022,0.387
5.945000,0.3256,-0.2259,-0.0460,0.399
5.946000,0.3167,-0.2052,-0.0540,0.381
5.947000,0.3244,-0.1777,-0.0754,0.377
5.947000,0.3165,-0.1847,-0.1124,0.383
5.977000,0.3061,-0.1585,-0.0960,0.358
5.978000,0.3385,-0.1337,-0.0741,0.371
5.978000,0.3540,-0.1446,-0.0440,0.385
5.979000,0.3647,-0.1092,0.0356,0.382
5.980000,0.3707,-0.1216,0.0316,0.391
5.980000,0.3637,-0.1340,0.0573,0.392
5.991000,0.3796,-0.2389,0.0876,0.457
5.992000,0.3388,-0.2505,0.1070,0.435
5.993000,0.3509,-0.2502,0.1117,0.445
6.004000,0.3787,-0.2240,0.1259,0.458
6.006000,0.3614,-0.1992,0.1103,0.427
6.007000,0.3847,-0.2187,0.1230,0.459
6.012000,0.3520,-0.1869,0.1055,0.412
6.018000,0.3480,-0.1146,0.0914,0.378
6.022000,0.3821,-0.0734,0.0856,0.398
6.027000,0.4388,-0.0298,0.0616,0.444
6.044000,0.4556,-0.0604,0.0328,0.461
6.046000,0.4341,-0.0442,0.0170,0.437
6.046000,0.4581,-0.0413,0.0380,0.461
6.049000,0.4700,-0.0204,0.0184,0.471
6.052000,0.5142,-0.0127,0.0634,0.518
6.056000,0.5084,-0.0217,0.0750,0.514
6.062000,0.5121,-0.0248,0.0661,0.517
6.069000,0.5627,-0.0483,0.0443,0.567
6.072000,0.5683,-0.0468,0.0514,0.572
6.077000,0.5611,-0.0921,0.0261,0.569
6.083000,0.5637,-0.1159,0.0607,0.579
6.088000,0.5680,-0.1242,0.0463,0.583
6.093000,0.5533,-0.1746,0.0706,0.584
6.104000,0.5475,-0.1464,0.0864,0.573
6.105000,0.5207,-0.1673,0.0402,0.548
6.108000,0.5183,-0.1762,0.0479,0.549
6.113000,0.5400,-0.1484,0.0600,0.563
6.118000,0.5380,-0.1613,0.0648,0.565
6.123000,0.5255,-0.1860,0.0577,0.560
6.128000,0.4967,-0.1276,0.0799,0.519
6.133000,0.5240,-0.1076,0.0580,0.538
6.138000,0.5143,-0.0962,0.0729,0.528
6.143000,0.5331,-0.1121,0.0771,0.550
6.161000,0.5209,-0.1350,0.0873,0.545
6.162000,0.5432,-0.1387,0.1045,0.570
6.163000,0.5526,-0.1271,0.1096,0.577
6.192000,0.5192,-0.1630,0.0886,0.551
6.194000,0.5456,-0.1358,0.1319,0.577
6.195000,0.5220,-0.1540,0.1250,0.558
6.195000,0.5296,-0.1626,0.1276,0.569
6.196000,0.5396,-0.1545,0.0990,0.570
6.196000,0.5342,-0.1383,0.1205,0.565
6.197000,0.5207,-0.1092,0.1013,0.542
6.208000,0.5288,-0.0982,0.1010,0.547
6.209000,0.5371,-0.0910,0.1208,0.558
6.210000,0.5229,-0.0317,0.1273,0.539
6.222000,0.5127,0.0211,0.1397,0.532
6.224000,0.4791,0.0567,0.1614,0.509
6.224000,0.4532,0.1263,0.1581,0.496
6.230000,0.4146,0.1502,0.1795,0.476
6.234000,0.3458,0.1429,0.1545,0.405
6.240000,0.2612,0.0952,0.1570,0.319
6.245000,0.2240,0.0821,0.1543,0.284
6.262000,0.2004,0.0785,0.1515,0.263
6.265000,0.1501,0.0760,0.1590,0.231
6.266000,0.1349,0.0757,0.1685,0.229
6.266000,0.0608,0.0800,0.1360,0.169
6.269000,0.0077,0.0557,0.1737,0.183
6.274000,-0.0458,0.0849,0.2027,0.225
6.279000,-0.0630,0.1078,0.1746,0.215
6.303000,-0.1191,0.1424,0.1944,0.269
6.310000,-0.1617,0.1032,0.2089,0.284
6.311000,-0.1228,0.1163,0.1380,0.218
6.312000,-0.1486,0.1295,0.1599,0.254
6.312000,-0.1648,0.1308,0.1334,0.249
6.313000,-0.1655,0.1465,0.1409,0.262
6.323000,-0.1676,0.1396,0.1012,0.240
6.324000,-0.1591,0.1113,0.0892,0.214
6.326000,-0.1291,0.0711,0.0512,0.156
6.329000,-0.1076,0.0562,0.0635,0.137
6.334000,-0.0861,0.0113,0.0661,0.109
6.340000,-0.0646,0.0047,0.0639,0.091
6.348000,-0.0502,-0.0401,0.1119,0.129
6.354000,-0.0526,-0.0622,0.0976,0.127
6.356000,-0.1086,-0.1034,0.0904,0.175
6.359000,-0.0950,-0.1231,0.1093,0.190
6.365000,-0.1042,-0.0950,0.1258,0.189
6.377000,-0.1156,-0.0945,0.1311,0.199
6.378000,-0.1150,-0.0391,0.1602,0.201
6.398000,-0.1143,-0.0340,0.2105,0.242
6.399000,-0.1195,-0.0516,0.2294,0.264
6.399000,-0.1511,0.0204,0.2527,0.295
6.400000,-0.1717,-0.0010,0.2794,0.328
6.400000,-0.1743,-0.0331,0.2999,0.348
6.406000,-0.1625,-0.0462,0.2867,0.333
6.410000,-0.1911,-0.0030,0.3248,0.377
6.415000,-0.1923,-0.0306,0.3112,0.367
6.420000,-0.2124,-0.0246,0.2365,0.319
6.425000,-0.2324,-0.0188,0.2059,0.311
6.430000,-0.2616,-0.0345,0.2326,0.352
6.435000,-0.2738,-0.0205,0.2256,0.355
6.441000,-0.2644,-0.0328,0.1538,0.308
6.446000,-0.2655,-0.0057,0.1166,0.290
6.451000,-0.2758,-0.0447,0.1065,0.299
6.455000,-0.3002,-0.0346,0.1166,0.324
6.460000,-0.3255,-0.0115,0.0906,0.338
6.476000,-0.3460,-0.0565,0.1015,0.365
6.477000,-0.3330,-0.0657,0.1039,0.355
6.477000,-0.3102,-0.0307,0.0965,0.326
6.501000,-0.3291,-0.0377,0.0855,0.342
6.501000,-0.3288,-0.0530,0.0982,0.347
6.502000,-0.3201,-0.0647,0.1300,0.352
6.502000,-0.2829,-0.0630,0.1165,0.312
6.503000,-0.2922,-0.0790,0.1387,0.333
6.507000,-0.2504,-0.0522,0.1654,0.305
6.512000,-0.2420,-0.1040,0.1123,0.286
6.518000,-0.1993,-0.0948,0.1475,0.265
6.522000,-0.1925,-0.1118,0.1740,0.283
6.527000,-0.2178,-0.1715,0.1454,0.313
6.533000,-0.2202,-0.1642,0.1691,0.323
6.537000,-0.1872,-0.1355,0.1877,0.298
6.542000,-0.1758,-0.1890,0.1621,0.305
6.548000,-0.1619,-0.1709,0.1176,0.263
6.552000,-0.1578,-0.1256,0.1170,0.233
6.557000,-0.1523,-0.1128,0.0866,0.208
6.563000,-0.1349,-0.0704,0.0931,0.178
6.568000,-0.1461,-0.0320,0.0970,0.178
6.574000,-0.1574,-0.0200,0.0391,0.163
6.578000,-0.1091,0.0169,0.0207,0.112
6.596000,-0.1193,0.0297,-0.0535,0.134
6.597000,-0.1625,0.0553,-0.1011,0.199
6.598000,-0.1886,0.0890,-0.1009,0.232
6.599000,-0.2133,0.0809,-0.1578,0.277
6.603000,-0.2175,0.0800,-0.2097,0.313
6.608000,-0.2322,0.1040,-0.2258,0.340
6.614000,-0.2539,0.1064,-0.2109,0.347
6.628000,-0.2444,0.1361,-0.1938,0.340
6.629000,-0.2361,0.0966,-0.1530,0.297
6.629000,-0.2681,0.0943,-0.0732,0.293
6.641000,-0.2722,0.0730,-0.0792,0.293
6.642000,-0.2523,0.0673,-0.1123,0.284
6.644000,-0.2753,0.0616,-0.1057,0.301
6.654000,-0.3028,0.0893,-0.1809,0.364
6.655000,-0.3061,0.0811,-0.2368,0.395
6.659000,-0.3354,0.1547,-0.2878,0.468
6.666000,-0.3767,0.1805,-0.3876,0.570
6.669000,-0.4095,0.2301,-0.3815,0.605
6.674000,-0.4819,0.2629,-0.4187,0.690
6.679000,-0.5122,0.2933,-0.4134,0.721
6.697000,-0.5390,0.3654,-0.4229,0.776
6.698000,-0.5501,0.3944,-0.3740,0.773
6.699000,-0.5707,0.4198,-0.3145,0.775
6.700000,-0.6153,0.3890,-0.3436,0.805
6.706000,-0.6538,0.3355,-0.3740,0.825
6.710000,-0.6645,0.2940,-0.2884,0.782
6.715000,-0.6871,0.2310,-0.2926,0.782
6.725000,-0.6961,0.1358,-0.2393,0.749
6.727000,-0.7168,0.0956,-0.2016,0.751
6.730000,-0.7563,0.0256,-0.2297,0.791
6.739000,-0.7738,-0.0469,-0.2231,0.807
6.740000,-0.8149,-0.0726,-0.2669,0.861
6.745000,-0.8581,-0.1140,-0.2846,0.911
6.751000,-0.8989,-0.0728,-0.2907,0.947
6.755000,-0.9709,-0.0889,-0.3328,1.030
6.760000,-0.9543,-0.1338,-0.3682,1.032
6.767000,-0.9808,-0.0637,-0.3582,1.046
6.770000,-1.0065,-0.0296,-0.3580,1.069
6.776000,-1.0455,0.0106,-0.3936,1.117
6.780000,-1.0729,0.0426,-0.3894,1.142
6.785000,-1.0530,0.0723,-0.3645,1.117
6.790000,-1.0420,0.1488,-0.4000,1.126
6.796000,-1.0747,0.1800,-0.3784,1.153
6.814000,-1.0575,0.2352,-0.3693,1.145
6.816000,-1.0434,0.2727,-0.3640,1.138
6.817000,-1.0335,0.3151,-0.4140,1.157
6.818000,-0.9883,0.3470,-0.4164,1.127
6.821000,-0.9440,0.3754,-0.4576,1.114
6.826000,-0.8873,0.3730,-0.4862,1.078
6.831000,-0.8133,0.3755,-0.5502,1.051
6.846000,-0.6944,0.3386,-0.5230,0.933
6.848000,-0.5998,0.3127,-0.5926,0.899
6.849000,-0.5272,0.2821,-0.5855,0.837
6.861000,-0.4907,0.2886,-0.5868,0.818
6.862000,-0.4902,0.2162,-0.5320,0.755
6.863000,-0.4228,0.1440,-0.5274,0.691
6.874000,-0.4058,0.1268,-0.5156,0.668
6.875000,-0.3854,0.1050,-0.5096,0.647
6.877000,-0.4096,0.0892,-0.4438,0.610
6.882000,-0.4098,0.0711,-0.4626,0.622
6.887000,-0.3982,0.0196,-0.4585,0.608
6.892000,-0.3951,0.0303,-0.4433,0.595
6.897000,-0.4135,0.0124,-0.4325,0.599
6.901000,-0.4176,-0.0210,-0.4215,0.594
6.907000,-0.4612,-0.0269,-0.4820,0.668
6.912000,-0.5106,-0.0411,-0.4946,0.712
6.931000,-0.5041,-0.0361,-0.4879,0.702
6.932000,-0.5623,-0.0346,-0.5216,0.768
6.933000,-0.6183,-0.0641,-0.5107,0.805
6.934000,-0.5943,-0.0828,-0.5234,0.796
6.962000,-0.6424,-0.0882,-0.5022,0.820
6.963000,-0.6573,-0.1150,-0.5367,0.856
6.964000,-0.6652,-0.1177,-0.5287,0.858
6.965000,-0.6589,-0.1431,-0.5116,0.846
6.965000,-0.6612,-0.1277,-0.5490,0.869
6.966000,-0.6637,-0.1410,-0.5824,0.894
6.974000,-0.6819,-0.1326,-0.6119,0.926
6.975000,-0.6870,-0.1123,-0.6113,0.926
6.978000,-0.7401,-0.1195,-0.6419,0.987
6.986000,-0.7537,-0.1410,-0.6880,1.030
6.987000,-0.7640,-0.1074,-0.6432,1.004
6.993000,-0.7397,-0.1133,-0.6728,1.006
6.997000,-0.7656,-0.0989,-0.6510,1.010
7.003000,-0.7436,-0.1216,-0.6196,0.976
7.008000,-0.7383,-0.1382,-0.6206,0.974
7.013000,-0.8021,-0.0940,-0.5809,0.995
7.029000,-0.8382,-0.0378,-0.5603,1.009
7.030000,-0.8553,-0.0331,-0.5662,1.026
7.031000,-0.8737,-0.0128,-0.5147,1.014
7.039000,-0.8469,0.0266,-0.4358,0.953
7.040000,-0.8441,0.0636,-0.3941,0.934
7.048000,-0.8823,0.1018,-0.3584,0.958
7.049000,-0.8644,0.1723,-0.3561,0.951
7.054000,-0.8287,0.1961,-0.3080,0.906
7.058000,-0.7909,0.2152,-0.2945,0.871
7.063000,-0.7929,0.2176,-0.3237,0.884
7.069000,-0.7628,0.2333,-0.2760,0.844
7.073000,-0.7843,0.1868,-0.3009,0.861
7.079000,-0.7607,0.1488,-0.3101,0.835
7.091000,-0.7144,0.1193,-0.3119,0.789
7.092000,-0.7208,0.0946,-0.2860,0.781
7.093000,-0.6676,0.0808,-0.2600,0.721
7.099000,-0.6266,0.1017,-0.2280,0.675
7.104000,-0.5812,0.1513,-0.1746,0.625
7.109000,-0.5599,0.1710,-0.2159,0.624
7.114000,-0.5400,0.1250,-0.1924,0.587
7.119000,-0.5275,0.1460,-0.1643,0.571
7.124000,-0.5272,0.1706,-0.1781,0.582
7.129000,-0.5149,0.1866,-0.1371,0.565
7.144000,-0.4817,0.1931,-0.1249,0.534
7.145000,-0.5060,0.2079,-0.1185,0.560
7.146000,-0.5458,0.2156,-0.0930,0.594
7.149000,-0.4942,0.1971,-0.0867,0.539
7.164000,-0.5086,0.1872,-0.1088,0.553
7.165000,-0.5410,0.1371,-0.1034,0.568
7.166000,-0.5757,0.0803,-0.0860,0.588
7.175000,-0.6046,0.0609,-0.0880,0.614
7.176000,-0.6073,0.0548,-0.0970,0.617
7.180000,-0.6116,0.0368,-0.0682,0.617
7.186000,-0.5745,0.0179,-0.0573,0.578
7.190000,-0.5759,-0.0114,-0.0512,0.578
7.195000,-0.5811,0.0379,-0.0592,0.585
7.201000,-0.5496,0.0429,-0.0883,0.558
7.205000,-0.5328,0.0373,-0.0657,0.538
7.210000,-0.5177,0.0378,-0.1274,0.534
7.215000,-0.4980,0.0739,-0.1551,0.527
7.220000,-0.4954,0.0457,-0.1824,0.530
7.226000,-0.4741,0.0594,-0.1904,0.514
7.231000,-0.4414,0.0861,-0.2064,0.495
7.245000,-0.4281,0.0948,-0.2402,0.500
7.246000,-0.4018,0.0702,-0.1885,0.449
7.246000,-0.4091,0.1063,-0.1730,0.457
7.269000,-0.4437,0.0805,-0.1458,0.474
7.270000,-0.4197,0.0476,-0.1310,0.442
7.270000,-0.3757,0.0150,-0.1358,0.400
7.271000,-0.3630,-0.0090,-0.0849,0.373
7.271000,-0.3490,-0.0115,-0.0254,0.350
7.276000,-0.3114,-0.0450,-0.0180,0.315
7.281000,-0.2787,-0.0853,-0.0039,0.291
7.286000,-0.2534,-0.1207,0.0772,0.291
7.291000,-0.2138,-0.1997,0.1048,0.311
7.296000,-0.1636,-0.2343,0.1364,0.317
7.302000,-0.1280,-0.2438,0.1911,0.335
7.307000,-0.1254,-0.3028,0.2002,0.384
7.311000,-0.0626,-0.3391,0.2268,0.413
7.316000,-0.0391,-0.3540,0.2277,0.423
7.322000,-0.0227,-0.3570,0.1934,0.407
7.327000,-0.0291,-0.3864,0.1516,0.416
7.332000,0.0111,-0.3727,0.1069,0.388
7.338000,0.0513,-0.3687,0.0762,0.380
7.342000,0.0591,-0.3408,0.0894,0.357
7.347000,0.1072,-0.2937,0.0811,0.323
7.365000,0.0953,-0.2789,0.0942,0.309
7.367000,0.1093,-0.2664,0.0775,0.298
7.367000,0.1409,-0.2395,0.0442,0.281
7.368000,0.1711,-0.2341,0.0374,0.292
7.372000,0.1795,-0.2382,-0.0158,0.299
7.377000,0.2068,-0.2039,-0.0196,0.291
7.383000,0.2146,-0.1624,-0.0317,0.271
7.399000,0.2234,-0.1341,-0.0291,0.262
7.400000,0.2214,-0.0937,-0.0824,0.254
7.401000,0.2945,-0.0461,-0.0110,0.298
7.413000,0.2861,0.0074,0.0798,0.297
7.414000,0.2946,0.0048,0.0813,0.306
7.414000,0.3008,0.0368,0.0534,0.308
7.425000,0.3296,0.0761,0.0248,0.339
7.427000,0.3717,0.1046,-0.0107,0.386
7.428000,0.3814,0.1044,-0.0291,0.397
7.434000,0.3866,0.1113,-0.0798,0.410
7.438000,0.3907,0.1409,-0.1338,0.436
7.443000,0.4178,0.2015,-0.1855,0.500
7.448000,0.4270,0.2309,-0.1932,0.522
7.463000,0.3945,0.2447,-0.2178,0.513
7.464000,0.3767,0.3050,-0.2391,0.540
7.465000,0.3566,0.2898,-0.2379,0.517
7.489000,0.3534,0.2686,-0.2118,0.492
7.490000,0.3409,0.2354,-0.1849,0.454
7.490000,0.3418,0.1890,-0.1211,0.409
7.491000,0.3480,0.1126,-0.1352,0.390
7.491000,0.3271,0.0339,-0.1064,0.346
7.494000,0.2969,-0.0365,-0.0408,0.302
7.499000,0.2862,-0.0806,0.0006,0.297
7.503000,0.3152,-0.1163,0.0074,0.336
7.509000,0.2572,-0.1700,0.0022,0.308
7.514000,0.2414,-0.1675,0.0015,0.294
7.521000,0.2257,-0.1674,-0.0495,0.285
7.524000,0.2159,-0.1279,0.0045,0.251
7.529000,0.1894,-0.1160,-0.0314,0.224
7.536000,0.1914,-0.1196,-0.0639,0.235
7.539000,0.1789,-0.1436,-0.0800,0.243
7.545000,0.1784,-0.1364,-0.1130,0.251
7.550000,0.1778,-0.0958,-0.1199,0.235
7.555000,0.1617,-0.1163,-0.1702,0.262
7.560000,0.1371,-0.1200,-0.1657,0.246
7.564000,0.1354,-0.1333,-0.1578,0.247
7.584000,0.1396,-0.1311,-0.1596,0.249
7.587000,0.1297,-0.1122,-0.1231,0.211
7.588000,0.1163,-0.1172,-0.0939,0.190
7.589000,0.1186,-0.1079,-0.0599,0.171
7.590000,0.1101,-0.1142,-0.0174,0.160
7.595000,0.1117,-0.1030,0.0305,0.155
7.600000,0.1156,-0.0896,0.0865,0.170
7.616000,0.1135,-0.0454,0.0424,0.129
7.617000,0.1231,-0.0596,0.0937,0.166
7.618000,0.1277,-0.0488,0.0320,0.140
7.620000,0.1547,0.0012,0.1180,0.195
7.626000,0.1469,0.0390,0.0848,0.174
7.631000,0.2008,0.0040,0.1185,0.233
7.636000,0.2116,-0.0128,0.0807,0.227
7.640000,0.2164,-0.0058,0.0752,0.229
7.646000,0.2118,-0.0333,0.0806,0.229
7.651000,0.2205,-0.0819,0.0515,0.241
7.656000,0.2376,-0.0828,0.0236,0.253
7.660000,0.2416,-0.0492,0.0281,0.248
7.666000,0.2432,-0.0551,-0.0032,0.249
7.670000,0.2142,-0.0574,-0.0058,0.222
7.675000,0.2105,-0.0349,-0.0321,0.216
7.681000,0.2057,-0.0458,0.0071,0.211
7.698000,0.2034,-0.0447,0.0793,0.223
7.699000,0.1975,0.0003,0.0537,0.205
7.700000,0.2214,0.0367,0.0261,0.226
7.721000,0.1871,0.0276,0.0107,0.189
7.722000,0.1744,0.0079,0.0408,0.179
7.723000,0.1584,0.0015,0.1112,0.194
7.724000,0.1580,-0.0037,0.0494,0.166
7.724000,0.1410,-0.0279,0.0844,0.167
7.726000,0.1624,-0.0079,0.1168,0.200
7.732000,0.1137,-0.0012,0.1470,0.186
7.737000,0.1498,-0.0041,0.1331,0.200
7.741000,0.1524,-0.0069,0.1350,0.204
7.747000,0.1564,0.0284,0.1026,0.189
7.753000,0.1271,0.0205,0.0814,0.152
7.756000,0.1253,0.0033,0.0901,0.154
7.762000,0.1190,0.0230,0.0455,0.129
7.767000,0.1162,0.0568,0.0561,0.141
7.772000,0.1410,0.0488,0.0965,0.178
7.777000,0.1158,0.0847,0.0438,0.150
7.782000,0.1289,0.1144,0.0774,0.189
7.797000,0.1442,0.1284,0.0752,0.207
7.798000,0.1274,0.1483,0.0745,0.209
7.799000,0.1228,0.1478,0.1119,0.222
7.820000,0.1088,0.0891,0.0541,0.151
7.821000,0.1035,0.1342,0.0086,0.170
7.822000,0.1221,0.0897,0.0251,0.154
7.823000,0.1169,0.0884,0.0354,0.151
7.823000,0.1107,0.0253,0.0719,0.134
7.828000,0.1331,0.0327,0.0000,0.137
7.833000,0.1163,0.0246,0.0141,0.120
7.837000,0.1378,-0.0321,0.0257,0.144
7.843000,0.1224,-0.0018,0.0170,0.124
7.848000,0.1395,-0.0513,0.0559,0.159
7.853000,0.1552,-0.0553,0.0505,0.172
7.858000,0.1519,-0.0320,0.0818,0.175
7.863000,0.1738,-0.0492,0.0962,0.205
7.870000,0.1563,-0.0344,0.0604,0.171
7.873000,0.1676,-0.0387,0.0864,0.193
7.878000,0.1672,-0.0443,0.0481,0.180
7.883000,0.1525,-0.0237,-0.0043,0.154
7.888000,0.1402,-0.0293,-0.0125,0.144
7.894000,0.1385,-0.0290,-0.0159,0.142
7.899000,0.1188,-0.0381,0.0224,0.127
7.918000,0.1265,-0.0542,0.0092,0.138
7.919000,0.1385,-0.0238,0.0757,0.160
7.920000,0.1147,-0.0743,0.0717,0.154
7.921000,0.1112,-0.0899,0.0963,0.172
7.926000,0.1171,-0.0709,0.1184,0.181
7.929000,0.1003,-0.1056,0.1260,0.193
7.934000,0.0969,-0.0900,0.1193,0.178
7.951000,0.0982,-0.1115,0.0888,0.173
7.952000,0.0961,-0.1233,0.1072,0.190
7.954000,0.0847,-0.1077,0.0969,0.168
7.955000,0.0251,-0.0865,0.0807,0.121
7.960000,0.0265,-0.0737,0.0942,0.123
7.964000,0.0304,-0.0587,0.1290,0.145
7.971000,-0.0203,-0.0760,0.1291,0.151
7.975000,-0.0195,-0.0372,0.1161,0.123
7.980000,0.0120,-0.0285,0.0805,0.086
7.984000,0.0030,-0.0460,0.0806,0.093
7.991000,0.0153,-0.0384,0.0673,0.079
7.995000,0.0096,-0.0511,0.0411,0.066
8.000000,0.0207,-0.0221,0.0802,0.086
8.021000,0.0426,-0.0244,0.0356,0.061
8.024000,0.0322,-0.0622,0.0413,0.081
8.024000,0.0316,-0.0262,0.0598,0.073
8.026000,0.0192,0.0118,0.0461,0.051
8.027000,0.0414,0.0151,0.0302,0.053
8.029000,0.0470,0.0255,0.0180,0.056
8.035000,0.0704,0.0452,-0.0155,0.085
8.054000,0.0579,0.0636,-0.0332,0.092
8.056000,0.0503,0.0415,-0.0354,0.074
8.056000,0.0535,0.0658,-0.0330,0.091
8.057000,0.0733,0.0484,-0.0400,0.097
8.062000,0.0607,0.0395,-0.0422,0.084
8.065000,0.0611,0.0260,-0.0420,0.079
8.071000,0.0757,0.0553,0.0095,0.094
8.076000,0.0581,0.0571,0.0036,0.082
8.080000,0.0666,0.0745,0.0028,0.100
8.085000,0.0620,0.1000,0.0093,0.118
8.096000,0.0310,0.0755,0.0300,0.087
8.097000,0.0096,0.0572,0.0268,0.064
8.101000,0.0561,0.0283,-0.0217,0.066
8.108000,0.0570,-0.0157,-0.0462,0.075
8.111000,0.0722,0.0023,-0.0077,0.073
8.116000,0.0481,-0.0143,0.0008,0.050
8.131000,0.0349,-0.0224,0.0138,0.044
8.133000,0.0252,-0.0566,-0.0008,0.062
8.133000,0.0215,-0.0620,-0.0023,0.066
8.156000,0.0416,-0.0425,-0.0192,0.062
8.157000,0.0201,-0.0789,-0.0539,0.098
8.158000,0.0012,-0.0545,0.0303,0.062
8.158000,0.0228,-0.0375,0.0224,0.049
8.159000,0.0158,-0.1061,0.0240,0.110
8.161000,0.0101,-0.1100,0.0137,0.111
8.166000,-0.0037,-0.1021,-0.0262,0.105
8.172000,0.0005,-0.1322,0.0019,0.132
8.177000,0.0083,-0.1135,0.0214,0.116
8.181000,0.0160,-0.1008,-0.0175,0.104
8.186000,0.0330,-0.1132,-0.0492,0.128
8.191000,0.0426,-0.0780,-0.0677,0.112
8.195000,0.0520,-0.0609,-0.0462,0.092
8.201000,0.0743,-0.0689,-0.0630,0.119
8.206000,0.1094,-0.0578,-0.0561,0.136
8.211000,0.0706,-0.0398,-0.0913,0.122
8.217000,0.0582,-0.0564,-0.0646,0.104
8.222000,0.0376,-0.0503,-0.0716,0.095
8.227000,0.0196,-0.0490,-0.0382,0.065
8.232000,0.0208,-0.0501,-0.0372,0.066
8.251000,-0.0149,-0.0382,-0.0792,0.089
8.252000,-0.0407,-0.0407,-0.0831,0.101
8.253000,-0.0331,-0.0230,-0.1060,0.113
8.253000,-0.0280,-0.0125,-0.0838,0.089
8.283000,-0.0254,-0.0235,-0.0273,0.044
8.284000,-0.0228,-0.0558,0.0550,0.082
8.285000,-0.0094,-0.0497,0.1452,0.154
8.286000,0.0324,-0.0805,0.1780,0.198
8.286000,0.0276,-0.1265,0.2691,0.299
8.289000,0.0218,-0.1470,0.2732,0.311
8.289000,0.0065,-0.1757,0.1885,0.258
8.293000,-0.0989,-0.1186,0.1164,0.193
8.298000,-0.1445,-0.0798,0.0340,0.169
8.304000,-0.0936,-0.1232,-0.0422,0.160
8.308000,-0.0352,-0.1271,-0.1185,0.177
8.313000,-0.0201,-0.1216,-0.1449,0.190
8.318000,-0.0029,-0.0733,-0.1527,0.169
8.323000,0.0129,-0.0363,-0.1870,0.191
8.328000,0.0130,-0.0209,-0.1895,0.191
8.333000,0.0096,-0.0152,-0.1268,0.128
8.349000,-0.0089,-0.0180,-0.0993,0.101
8.350000,-0.0189,-0.0647,-0.0389,0.078
8.351000,-0.0048,-0.0885,0.0009,0.089
8.372000,0.0070,-0.1098,0.0453,0.119
8.374000,-0.0214,-0.1404,0.0703,0.159
8.374000,0.0004,-0.1566,0.1128,0.193
8.375000,-0.0242,-0.1348,0.1334,0.191
8.375000,-0.0391,-0.1285,0.1087,0.173
8.379000,-0.0456,-0.0974,0.0804,0.134
8.383000,-0.0356,-0.0511,0.1079,0.125
8.388000,-0.0391,-0.0383,0.0889,0.104
8.394000,-0.0309,0.0005,0.0745,0.081
8.399000,0.0008,0.0296,0.0532,0.061
8.404000,0.0238,0.0573,0.0144,0.064
8.408000,0.0182,0.0479,-0.0464,0.069
8.414000,0.0161,0.0815,-0.0304,0.088
8.419000,-0.0001,0.0982,-0.0782,0.126
8.424000,-0.0257,0.0851,-0.0921,0.128
8.429000,-0.0285,0.0496,-0.0748,0.094
8.434000,-0.0276,0.0464,-0.0657,0.085
8.440000,-0.0517,0.0018,-0.0637,0.082
8.444000,-0.0492,0.0263,-0.0699,0.089
8.450000,-0.0396,0.0221,-0.0368,0.058
8.467000,-0.0633,-0.0153,-0.0636,0.091
8.469000,-0.0487,-0.0263,-0.0937,0.109
8.469000,-0.0117,-0.0206,-0.0656,0.070
8.471000,-0.0084,-0.0102,-0.0414,0.043
8.475000,-0.0441,0.0333,-0.0625,0.083
8.480000,-0.0013,0.0171,-0.0704,0.072
8.485000,-0.0122,0.0236,-0.0841,0.088
8.496000,0.0006,0.0658,-0.0466,0.081
8.497000,0.0253,0.0695,-0.1066,0.130
8.500000,0.0236,0.0626,-0.1780,0.190
8.509000,0.0292,0.0984,-0.1513,0.183
8.510000,0.0157,0.1019,-0.1546,0.186
8.516000,0.0367,0.1327,-0.1613,0.212
8.521000,0.0563,0.1442,-0.2297,0.277
8.525000,0.0451,0.1082,-0.2344,0.262
8.531000,0.0683,0.0570,-0.2020,0.221
8.536000,0.0497,0.0942,-0.1959,0.223
8.541000,0.0372,0.0836,-0.1850,0.206
8.546000,0.0342,0.0731,-0.1764,0.194
8.551000,0.0574,0.0781,-0.1868,0.210
8.567000,0.0458,0.0571,-0.2090,0.221
8.568000,0.0166,0.0765,-0.2082,0.222
8.568000,0.0435,0.0613,-0.1898,0.204
8.590000,0.0809,0.0332,-0.1776,0.198
8.592000,0.0954,0.0279,-0.1905,0.215
8.593000,0.0470,0.0249,-0.1416,0.151
8.594000,0.0537,-0.0112,-0.1618,0.171
8.594000,0.0413,0.0027,-0.1344,0.141
8.596000,0.0494,0.0225,-0.1557,0.165
8.601000,0.0669,0.0196,-0.1597,0.174
8.607000,0.0393,0.0156,-0.1030,0.111
8.612000,0.0487,-0.0157,-0.0843,0.099
8.616000,0.0437,-0.0609,-0.1331,0.153
8.622000,-0.0098,-0.0891,-0.1160,0.147
8.627000,-0.0214,-0.0944,-0.1380,0.169
8.632000,-0.0118,-0.0961,-0.1789,0.203
8.639000,-0.0079,-0.0955,-0.1804,0.204
8.642000,0.0007,-0.1140,-0.1371,0.178
8.647000,-0.0027,-0.1263,-0.1776,0.218
8.652000,-0.0238,-0.1268,-0.1481,0.196
8.657000,0.0075,-0.1381,-0.1705,0.220
8.662000,-0.0053,-0.1089,-0.1740,0.205
8.668000,-0.0119,-0.1085,-0.1979,0.226
8.685000,0.0422,-0.0560,-0.2076,0.219
8.686000,0.0365,-0.0276,-0.1829,0.189
8.687000,0.0487,-0.0399,-0.2117,0.221
8.718000,0.0573,-0.0070,-0.1940,0.202
8.719000,0.0730,-0.0028,-0.2109,0.223
8.719000,0.0825,-0.0355,-0.2680,0.283
8.720000,0.0896,-0.0381,-0.2414,0.260
8.721000,0.0551,-0.0123,-0.1770,0.186
8.721000,0.0566,-0.0378,-0.1903,0.202
8.722000,0.0450,-0.0879,-0.1475,0.178
8.723000,0.0501,-0.0593,-0.1500,0.169
8.728000,0.0102,-0.0499,-0.0956,0.108
8.733000,0.0122,-0.0786,-0.0617,0.101
8.739000,-0.0012,-0.0679,-0.0613,0.092
8.743000,-0.0072,-0.0573,-0.0620,0.085
8.749000,-0.0205,-0.0337,0.0086,0.040
8.754000,-0.0159,-0.0007,-0.0019,0.016
8.759000,-0.0315,-0.0286,0.0425,0.060
8.764000,-0.0210,-0.0371,0.0560,0.070
8.769000,-0.0119,-0.0348,0.0873,0.095
8.787000,-0.0003,-0.0362,0.0807,0.088
8.788000,-0.0316,-0.0576,0.0269,0.071
8.789000,-0.0223,-0.0776,0.0192,0.083
8.789000,0.0014,-0.0678,-0.0193,0.071
8.794000,-0.0073,-0.0652,-0.0716,0.097
8.798000,0.0067,-0.0341,-0.1152,0.120
8.817000,-0.0185,-0.0449,-0.1193,0.129
8.819000,-0.0208,-0.0283,-0.1342,0.139
8.819000,-0.0281,-0.0189,-0.1158,0.121
8.820000,-0.0042,-0.0180,-0.1403,0.142
8.831000,-0.0408,-0.0172,-0.1102,0.119
8.832000,-0.0617,-0.0105,-0.1185,0.134
8.834000,-0.0836,0.0176,-0.1375,0.162
8.843000,-0.0708,0.0347,-0.0959,0.124
8.846000,-0.1307,0.0256,-0.0712,0.151
8.850000,-0.1285,0.0438,-0.0587,0.148
8.857000,-0.1487,0.0251,-0.0511,0.159
8.859000,-0.1570,0.0125,-0.0269,0.160
8.864000,-0.1832,0.0167,0.0268,0.186
8.869000,-0.1583,0.0363,0.0266,0.165
8.874000,-0.1788,0.0047,0.0382,0.183
8.880000,-0.1850,-0.0159,0.0274,0.188
8.884000,-0.1636,-0.0054,0.0320,0.167
8.899000,-0.1116,-0.0153,0.0509,0.124
8.900000,-0.1277,-0.0524,0.0519,0.147
8.900000,-0.1244,-0.0405,0.0020,0.131
8.922000,-0.1034,-0.0429,-0.0058,0.112
8.923000,-0.0587,-0.0430,-0.0110,0.074
8.924000,-0.0547,-0.0454,-0.0279,0.076
8.924000,-0.0779,-0.0288,-0.0338,0.090
8.925000,-0.0546,-0.0302,-0.0965,0.115
8.930000,-0.0173,-0.0137,-0.0816,0.085
8.936000,-0.0194,-0.0224,-0.1309,0.134
8.940000,-0.0297,-0.0226,-0.1453,0.150
8.946000,-0.0163,-0.0264,-0.1457,0.149
8.950000,0.0052,-0.0338,-0.1105,0.116
8.956000,0.0157,0.0100,-0.1245,0.126
8.960000,0.0025,0.0142,-0.1244,0.125
8.966000,0.0037,-0.0126,-0.1067,0.108
8.970000,-0.0024,-0.0011,-0.0906,0.091
8.975000,-0.0286,-0.0052,-0.0701,0.076
8.981000,-0.0535,-0.0211,-0.0402,0.070
8.986000,-0.0332,-0.0048,-0.0086,0.035
9.006000,-0.0867,0.0267,0.0216,0.093
9.007000,-0.1043,-0.0107,0.0767,0.130
9.009000,-0.1087,-0.0122,0.0899,0.142
9.013000,-0.1335,-0.0137,0.0746,0.154
9.014000,-0.1272,-0.0068,0.1213,0.176
9.019000,-0.1435,-0.0308,0.1051,0.180
9.039000,-0.1206,-0.0118,0.1022,0.159
9.040000,-0.1053,0.0072,0.0818,0.134
9.041000,-0.0425,-0.0132,0.0581,0.073
9.042000,-0.0349,0.0117,0.0145,0.040
9.043000,-0.0049,0.0067,-0.0261,0.027
9.047000,0.0166,-0.0184,-0.0473,0.053
9.052000,0.0131,-0.0207,-0.0494,0.055
9.056000,0.0308,-0.0123,-0.1048,0.110
9.062000,0.0106,-0.0064,-0.1063,0.107
9.067000,0.0260,0.0149,-0.0889,0.094
9.083000,0.0448,0.0444,-0.1097,0.127
9.084000,0.0419,0.0440,-0.1234,0.138
9.086000,0.0142,0.0186,-0.1702,0.172
9.087000,0.0080,0.0409,-0.1050,0.113
9.093000,0.0113,0.0619,-0.0355,0.072
9.097000,-0.0009,0.0270,0.0205,0.034
9.102000,-0.0237,0.0161,0.0800,0.085
9.119000,-0.0119,-0.0196,0.1180,0.120
9.121000,-0.0026,-0.0394,0.1204,0.127
9.121000,-0.0042,-0.0722,0.1585,0.174
9.148000,-0.0378,-0.0761,0.1121,0.141
9.149000,-0.0451,-0.0836,0.0625,0.114
9.149000,-0.0571,-0.0696,0.0369,0.097
9.150000,-0.0704,-0.0368,-0.0139,0.081
9.151000,-0.0575,-0.0411,-0.0515,0.087
9.151000,-0.0592,-0.0215,-0.0938,0.113
9.153000,-0.0718,0.0121,-0.1360,0.154
9.162000,-0.0439,0.0193,-0.1449,0.153
9.163000,-0.0034,0.0502,-0.1443,0.153
9.168000,0.0037,0.0667,-0.1637,0.177
9.174000,0.0155,0.0592,-0.1307,0.144
9.178000,0.0452,0.0636,-0.1218,0.145
9.183000,0.0584,-0.0223,-0.1176,0.133
9.190000,0.0873,-0.0756,-0.0875,0.145
9.194000,0.0902,-0.1084,-0.0234,0.143
9.198000,0.0623,-0.1255,-0.0396,0.146
9.204000,0.0644,-0.1295,0.0010,0.145
9.209000,0.0405,-0.1537,0.0244,0.161
9.213000,0.0418,-0.1220,0.0272,0.132
9.218000,0.0038,-0.1095,0.0166,0.111
9.235000,-0.0089,-0.0674,0.0156,0.070
9.236000,0.0127,-0.0245,0.0312,0.042
9.237000,0.0446,0.0027,0.0288,0.053
9.268000,0.0430,0.0012,-0.0113,0.045
9.270000,0.0045,0.0271,-0.0283,0.039
9.270000,-0.0173,0.0481,-0.0094,0.052
9.271000,-0.0283,0.0405,-0.0403,0.064
9.271000,-0.0309,0.0709,-0.0601,0.098
9.273000,-0.0240,0.0739,-0.0451,0.090
9.274000,-0.0445,0.0305,-0.0611,0.081
9.275000,-0.0280,0.0302,-0.0971,0.106
9.282000,-0.0401,0.0429,-0.0950,0.112
9.284000,-0.0497,0.0021,-0.0469,0.068
9.295000,-0.0414,-0.0076,-0.0493,0.065
9.297000,-0.0831,0.0066,0.0146,0.085
9.300000,-0.0686,-0.0304,0.0328,0.082
9.304000,-0.0448,-0.0149,-0.0074,0.048
9.310000,-0.0675,0.0005,0.0551,0.087
9.315000,-0.0673,-0.0317,0.0802,0.109
9.320000,-0.0362,0.0124,0.0960,0.103
9.338000,-0.0411,0.0300,0.0917,0.105
9.339000,-0.0340,0.0036,0.0735,0.081
9.340000,-0.0425,-0.0036,0.0782,0.089
9.342000,-0.0593,0.0166,0.0202,0.065
9.347000,-0.0369,0.0213,-0.0158,0.045
9.349000,-0.0467,0.0556,-0.0397,0.083
9.369000,-0.0125,0.0196,-0.0540,0.059
9.371000,-0.0060,-0.0101,-0.0456,0.047
9.371000,-0.0375,0.0019,-0.0801,0.088
9.372000,-0.0022,-0.0100,-0.0895,0.090
9.384000,0.0080,0.0008,-0.0658,0.066
9.385000,0.0062,0.0447,-0.0649,0.079
9.386000,-0.0168,0.0407,-0.0735,0.086
9.398000,-0.0004,0.0604,-0.0764,0.097
9.399000,-0.0209,0.0194,-0.0687,0.074
9.401000,-0.0140,0.0536,-0.0528,0.076
9.405000,-0.0296,0.0661,-0.0586,0.093
9.410000,-0.0191,0.0559,-0.0679,0.090
9.416000,-0.0229,0.0707,-0.0427,0.086
9.421000,-0.0444,0.0652,-0.0119,0.080
9.438000,-0.0243,0.0622,0.0152,0.068
9.441000,-0.0199,0.0592,0.0399,0.074
9.442000,-0.0215,0.0456,0.0444,0.067
9.444000,-0.0517,0.0774,0.0862,0.127
9.446000,-0.0471,0.0661,0.0614,0.102
9.452000,-0.0332,0.0657,0.0525,0.090
9.473000,-0.0466,0.0510,0.0620,0.093
9.474000,-0.0456,0.0448,0.0489,0.080
9.475000,-0.0578,0.0185,0.0337,0.069
9.475000,-0.0453,0.0246,-0.0051,0.052
9.476000,-0.0374,-0.0027,-0.0069,0.038
9.482000,-0.0048,-0.0072,-0.0443,0.045
9.486000,-0.0164,0.0204,-0.0507,0.057
9.493000,-0.0350,0.0086,-0.0369,0.052
9.497000,-0.0392,-0.0210,-0.0125,0.046
9.502000,0.0066,-0.0064,0.0222,0.024
9.508000,-0.0239,0.0034,0.0284,0.037
9.512000,-0.0103,-0.0250,0.0071,0.028
9.517000,-0.0049,-0.0032,-0.0293,0.030
9.522000,-0.0127,0.0125,-0.0094,0.020
9.527000,-0.0525,0.0149,0.0030,0.055
9.532000,-0.0705,-0.0052,-0.0022,0.071
9.537000,-0.0600,0.0330,-0.0323,0.076
9.555000,-0.0507,0.0164,-0.0585,0.079
9.556000,-0.0344,0.0070,-0.0466,0.058
9.557000,-0.0302,0.0012,-0.0371,0.048
9.558000,-0.0222,-0.0152,0.0091,0.028
9.562000,-0.0145,-0.0529,-0.0446,0.071
9.568000,-0.0199,-0.0593,-0.0280,0.069
9.589000,0.0067,-0.0621,-0.0329,0.071
9.590000,0.0342,-0.0649,-0.0650,0.098
9.590000,0.0178,-0.0368,-0.0340,0.053
9.591000,0.0264,-0.0541,-0.0543,0.081
9.594000,0.0374,-0.0380,-0.1040,0.117
9.598000,0.0484,-0.0149,-0.0952,0.108
9.604000,0.0378,0.0222,-0.0794,0.091
9.609000,0.0357,0.0092,-0.1054,0.112
9.613000,0.0492,0.0555,-0.0943,0.120
9.618000,-0.0123,0.0635,-0.0728,0.097
9.625000,-0.0034,0.0026,-0.0847,0.085
9.630000,-0.0206,0.0253,-0.0799,0.086
9.633000,-0.0137,0.0217,-0.0527,0.059
9.638000,-0.0093,0.0335,-0.0530,0.063
9.643000,-0.0395,0.0333,-0.0368,0.063
9.649000,-0.0184,-0.0131,-0.0481,0.053
9.653000,-0.0320,0.0298,-0.0274,0.052
9.669000,-0.0562,0.0155,0.0052,0.058
9.670000,-0.0447,-0.0010,-0.0278,0.053
9.671000,0.0081,-0.0245,-0.0023,0.026
9.673000,-0.0095,-0.0146,-0.0470,0.050
9.679000,0.0001,0.0013,-0.0201,0.020
9.683000,0.0500,-0.0020,-0.0030,0.050
9.693000,0.0319,0.0018,-0.0345,0.047
9.694000,0.0567,-0.0157,-0.0432,0.073
9.699000,0.0447,-0.0522,-0.0566,0.089
9.704000,0.0437,-0.0445,-0.0665,0.091
9.709000,0.0286,-0.0404,-0.0777,0.092
9.714000,0.0373,-0.0175,-0.0581,0.071
9.719000,0.0118,-0.0031,-0.0818,0.083
9.724000,-0.0206,-0.0044,-0.1114,0.113
9.730000,-0.0466,-0.0056,-0.0566,0.074
9.734000,-0.0429,-0.0069,-0.0547,0.070
9.741000,-0.0830,-0.0082,-0.0314,0.089
9.745000,-0.0754,0.0131,-0.0251,0.081
9.750000,-0.0798,0.0117,0.0131,0.082
9.755000,-0.0437,-0.0075,0.0295,0.053
9.760000,-0.0175,-0.0159,0.0578,0.062
9.765000,0.0036,-0.0159,0.1096,0.111
9.770000,0.0018,0.0163,0.0696,0.072
9.787000,-0.0176,-0.0089,0.0668,0.070
9.788000,-0.0001,0.0042,0.0537,0.054
9.789000,0.0313,-0.0148,0.0288,0.045
9.817000,0.0554,-0.0182,0.0268,0.064
9.818000,0.0639,-0.0204,0.0048,0.067
9.819000,0.0808,-0.0083,-0.0466,0.094
9.819000,0.0621,0.0060,-0.0403,0.074
9.820000,0.0790,0.0155,-0.0719,0.108
9.820000,0.0984,-0.0084,-0.0974,0.139
9.821000,0.0608,-0.0001,-0.1274,0.141
9.830000,0.0794,0.0176,-0.1301,0.153
9.831000,0.0931,0.0102,-0.1091,0.144
9.836000,0.0489,0.0265,-0.0706,0.090
9.841000,0.0358,0.0284,-0.0505,0.068
9.846000,0.0204,0.0101,-0.0497,0.055
9.850000,-0.0030,0.0465,-0.0076,0.047
9.856000,-0.0024,-0.0029,0.0283,0.029
9.861000,-0.0149,0.0099,0.0699,0.072
9.866000,-0.0061,-0.0023,0.1040,0.104
9.871000,-0.0235,-0.0144,0.1118,0.115
9.885000,0.0068,-0.0110,0.0926,0.093
9.886000,0.0213,-0.0158,0.0820,0.086
9.886000,0.0143,-0.0170,0.0707,0.074
9.910000,0.0274,-0.0633,0.0312,0.076
9.911000,0.0429,-0.0687,0.0041,0.081
9.911000,0.0737,-0.0837,-0.0558,0.125
9.912000,0.0888,-0.0759,-0.0867,0.145
9.912000,0.0801,-0.0919,-0.1041,0.160
9.916000,0.0918,-0.0865,-0.1381,0.187
9.921000,0.1176,-0.0705,-0.1399,0.196
9.927000,0.1077,-0.0748,-0.1371,0.190
9.932000,0.0719,-0.1005,-0.1273,0.177
9.937000,0.0579,-0.0691,-0.1153,0.146
9.942000,0.0406,-0.0391,-0.0999,0.115
9.947000,0.0376,-0.0142,-0.0837,0.093
9.952000,-0.0188,0.0010,-0.1250,0.126
9.959000,-0.0368,0.0398,-0.0806,0.097
9.962000,-0.0655,0.0724,-0.0404,0.106
9.967000,-0.0750,0.0251,-0.0435,0.090
9.972000,-0.0823,0.0543,-0.0160,0.100
9.977000,-0.0825,0.0476,0.0244,0.098
9.983000,-0.0734,0.0446,-0.0103,0.086
9.987000,-0.0953,0.0345,0.0445,0.111
10.010000,-0.0768,-0.0015,0.0066,0.077
10.013000,-0.0312,-0.0491,-0.0141,0.060
10.013000,-0.0157,-0.0760,0.0035,0.078
10.014000,0.0305,-0.0695,-0.0727,0.105
10.018000,0.0658,-0.0749,-0.0661,0.120
10.020000,0.0950,-0.0517,-0.0333,0.113
10.045000,0.1239,-0.0965,-0.0278,0.159
10.046000,0.1170,-0.1146,-0.0565,0.173
10.047000,0.1340,-0.0781,-0.0337,0.159
10.050000,0.1272,-0.0596,-0.0526,0.150
10.050000,0.1168,-0.0757,-0.0987,0.171
10.051000,0.0910,-0.0810,-0.1091,0.164
10.053000,0.0796,-0.0756,-0.1126,0.157
10.070000,0.0481,-0.0561,-0.1056,0.129
10.071000,0.0132,-0.0070,-0.0765,0.078
10.072000,-0.0215,-0.0011,-0.0811,0.084
10.082000,-0.0515,0.0203,-0.0419,0.069
10.084000,-0.0682,0.0284,-0.0339,0.081
10.084000,-0.0672,0.0615,0.0086,0.091
10.088000,-0.0924,0.0670,0.0295,0.118
10.103000,-0.0828,0.0310,0.0290,0.093
10.104000,-0.0508,0.0225,0.0168,0.058
10.104000,-0.0297,-0.0132,-0.0166,0.036
10.128000,-0.0430,-0.0450,0.0216,0.066
10.129000,0.0281,-0.0564,0.0251,0.068
10.130000,0.0619,-0.0429,0.0037,0.075
10.130000,0.0494,-0.0485,0.0416,0.081
10.131000,0.0716,-0.0838,0.0327,0.115
10.134000,0.0653,-0.0820,0.0369,0.111
10.139000,0.0413,-0.0519,0.0017,0.066
10.144000,0.0212,-0.0078,-0.0557,0.060
10.149000,0.0250,0.0265,-0.0333,0.049
10.154000,0.0168,0.0249,-0.0419,0.051
10.159000,0.0511,0.0566,-0.0491,0.091
10.164000,0.0245,0.0691,-0.0670,0.099
10.169000,0.0218,0.0696,-0.0762,0.105
10.176000,-0.0059,0.0631,-0.0805,0.102
10.180000,0.0057,0.0530,-0.0777,0.094
10.185000,0.0398,0.0562,-0.0796,0.105
10.190000,0.0011,0.0308,-0.0945,0.099
10.195000,-0.0050,0.0258,-0.1068,0.110
10.200000,0.0317,0.0101,-0.0490,0.059
10.206000,0.0231,0.0005,-0.0379,0.044
10.223000,-0.0020,-0.0162,-0.0351,0.039
10.226000,0.0194,-0.0411,-0.0335,0.056
10.226000,0.0229,-0.0728,-0.0225,0.080
10.227000,0.0239,-0.0640,0.0016,0.068
10.231000,0.0238,-0.0706,-0.0101,0.075
10.235000,0.0035,-0.0642,0.0424,0.077
10.240000,0.0190,-0.0495,0.0124,0.054
10.257000,0.0224,-0.0669,0.0077,0.071
10.258000,0.0199,-0.0653,0.0183,0.071
10.259000,0.0292,-0.0458,-0.0019,0.054
10.260000,0.0338,-0.0110,-0.0410,0.054
10.266000,0.0444,-0.0253,-0.0703,0.087
10.271000,0.0383,-0.0311,-0.0792,0.093
10.277000,0.0153,-0.0155,-0.0833,0.086
10.281000,0.0342,0.0024,-0.0792,0.086
10.286000,0.0327,-0.0167,-0.0774,0.086
10.294000,0.0503,-0.0107,-0.0568,0.077
10.296000,0.0441,0.0094,-0.0709,0.084
10.301000,0.0558,0.0780,-0.1086,0.145
10.306000,0.0342,0.0321,-0.0547,0.072
10.311000,0.0591,0.0008,-0.0654,0.088
10.317000,0.0697,0.0231,-0.0666,0.099
10.321000,0.0493,-0.0023,-0.0262,0.056
10.340000,0.0327,0.0236,-0.0242,0.047
10.342000,0.0245,0.0279,-0.0520,0.064
10.342000,0.0235,0.0073,-0.0320,0.040
10.343000,0.0379,-0.0429,0.0389,0.069
10.346000,0.0261,-0.0463,0.0204,0.057
10.351000,-0.0152,-0.0426,0.0580,0.074
10.356000,-0.0074,-0.0685,0.0932,0.116
10.371000,0.0300,-0.0788,0.0774,0.114
10.373000,0.0363,-0.0724,0.0276,0.086
10.373000,0.0045,-0.0588,-0.0551,0.081
10.387000,0.0097,-0.0751,-0.0849,0.114
10.388000,0.0162,-0.0651,-0.0871,0.110
10.389000,0.0366,-0.0457,-0.1275,0.140
10.402000,0.0687,-0.0680,-0.1427,0.172
10.404000,0.0661,-0.1056,-0.1297,0.180
10.404000,0.0646,-0.0680,-0.0885,0.129
10.406000,0.0986,-0.0629,-0.0787,0.141
10.413000,0.0600,-0.0388,-0.0466,0.085
10.417000,0.0121,0.0005,-0.0564,0.058
10.422000,0.0002,-0.0258,-0.0484,0.055
10.437000,-0.0186,0.0182,-0.0192,0.032
10.438000,-0.0434,0.0380,0.0120,0.059
10.439000,-0.0692,0.0423,0.0037,0.081
10.462000,-0.0914,0.0062,0.0572,0.108
10.463000,-0.1004,0.0321,0.0901,0.139
10.463000,-0.0750,0.0389,0.1027,0.133
10.464000,-0.0713,0.0208,0.0620,0.097
10.464000,-0.0391,-0.0328,0.0956,0.108
10.468000,-0.0094,-0.0289,0.0604,0.068
10.473000,-0.0012,-0.0619,0.0138,0.063
10.477000,0.0285,-0.0626,-0.0130,0.070
10.483000,0.0474,-0.0692,-0.0643,0.106
10.488000,0.0673,-0.0627,-0.1270,0.157
10.494000,0.0967,-0.0278,-0.1665,0.195
10.498000,0.1081,-0.0501,-0.1750,0.212
10.503000,0.1240,-0.0593,-0.2122,0.253
10.509000,0.1091,-0.0446,-0.1615,0.200
10.513000,0.0919,-0.0135,-0.1659,0.190
10.518000,0.0973,0.0007,-0.1339,0.166
10.523000,0.0647,0.0017,-0.0798,0.103
10.529000,0.0489,0.0050,-0.0620,0.079
10.533000,0.0117,-0.0106,0.0231,0.028
10.539000,-0.0040,-0.0107,0.0172,0.021
10.558000,-0.0480,0.0296,0.0112,0.058
10.559000,-0.0740,0.0292,0.0693,0.106
10.560000,-0.0786,0.0170,0.0734,0.109
10.560000,-0.0688,0.0156,0.1084,0.129
10.564000,-0.0806,0.0024,0.1195,0.144
10.568000,-0.0935,-0.0452,0.1189,0.158
10.573000,-0.0304,-0.0365,0.1149,0.124
10.589000,0.0121,-0.0231,0.0994,0.103
10.590000,-0.0003,-0.0216,0.0450,0.050
10.591000,0.0540,-0.0475,0.0199,0.075
10.604000,0.0462,-0.0625,-0.0119,0.079
10.605000,0.0683,-0.0691,-0.0731,0.122
10.606000,0.0949,-0.0412,-0.1183,0.157
10.618000,0.1238,-0.0325,-0.1192,0.175
10.620000,0.0919,-0.0181,-0.1501,0.177
10.621000,0.0901,0.0390,-0.1772,0.203
10.625000,0.0941,0.0172,-0.1925,0.215
10.630000,0.0600,0.0288,-0.1581,0.172
10.635000,0.0498,0.0535,-0.0932,0.118
10.640000,0.0325,0.0328,-0.0680,0.082
10.657000,0.0034,0.0431,-0.0159,0.046
10.658000,-0.0067,0.0333,0.0061,0.034
10.659000,0.0058,0.0330,0.0577,0.067
10.684000,-0.0244,0.0340,0.0653,0.078
10.686000,-0.0189,-0.0054,0.0456,0.050
10.687000,0.0055,0.0007,0.0832,0.083
10.687000,0.0061,0.0234,0.0674,0.072
10.688000,0.0150,-0.0170,0.0602,0.064
10.689000,0.0157,-0.0476,0.0116,0.051
10.691000,0.0201,-0.0412,0.0111,0.047
10.699000,0.0493,-0.0419,-0.0167,0.067
10.700000,0.0629,-0.0818,-0.0489,0.114
10.706000,0.0858,-0.0644,-0.0347,0.113
10.711000,0.0920,-0.0828,-0.0658,0.140
10.716000,0.0912,-0.0714,-0.0590,0.130
10.721000,0.1069,-0.0661,-0.0832,0.151
10.727000,0.1047,-0.0810,-0.0896,0.160
10.731000,0.0587,-0.0519,-0.0820,0.113
10.736000,0.0416,-0.0469,-0.0724,0.096
10.741000,0.0293,-0.0454,-0.0857,0.101
10.746000,0.0431,-0.0381,-0.0218,0.062
10.751000,0.0176,-0.0640,-0.0073,0.067
10.757000,-0.0030,-0.0256,0.0081,0.027
10.774000,-0.0210,0.0089,0.0433,0.049
10.775000,-0.0329,-0.0151,0.0774,0.085
10.776000,-0.0233,-0.0151,0.0484,0.056
10.806000,-0.0268,-0.0127,0.0816,0.087
10.807000,-0.0481,0.0110,0.0745,0.089
10.808000,-0.0217,-0.0177,0.0211,0.035
10.809000,-0.0013,-0.0093,0.0240,0.026
10.809000,-0.0168,-0.0319,0.0009,0.036
10.810000,-0.0297,-0.0020,-0.0149,0.033
10.811000,0.0110,0.0038,-0.0091,0.015
10.815000,0.0299,-0.0486,-0.0164,0.059
10.817000,-0.0154,-0.0340,-0.0083,0.038
10.822000,-0.0046,-0.0030,-0.0028,0.006
10.829000,0.0158,-0.0352,-0.0056,0.039
10.832000,0.0015,-0.0458,-0.0144,0.048
10.838000,-0.0244,-0.0432,-0.0017,0.050
10.842000,-0.0158,-0.0085,0.0181,0.025
10.848000,-0.0156,-0.0145,0.0283,0.035
10.853000,-0.0356,-0.0133,0.0147,0.041
10.858000,-0.0482,0.0045,0.0058,0.049
10.875000,-0.0467,0.0019,0.0100,0.048
10.876000,-0.0403,0.0457,0.0321,0.069
10.877000,-0.0543,0.0393,0.0350,0.076
10.878000,-0.0517,0.0176,0.0092,0.055
10.883000,-0.0468,0.0375,0.0144,0.062
10.887000,-0.0526,0.0075,0.0113,0.054
10.892000,-0.0084,-0.0164,0.0093,0.021
10.903000,-0.0618,-0.0331,0.0167,0.072
10.904000,-0.0377,-0.0210,0.0146,0.046
10.910000,-0.0244,-0.0305,0.0266,0.047
10.917000,-0.0041,-0.0126,0.0206,0.024
10.919000,-0.0291,-0.0091,-0.0009,0.031
10.923000,-0.0266,-0.0400,0.0384,0.062
10.932000,-0.0074,-0.0055,-0.0128,0.016
10.933000,-0.0109,-0.0412,0.0017,0.043
10.939000,0.0165,-0.0411,0.0684,0.082
10.944000,0.0260,-0.0041,0.0754,0.080
10.948000,0.0425,-0.0149,0.0409,0.061
10.953000,0.0210,-0.0185,0.0354,0.045
10.959000,0.0270,-0.0423,0.0110,0.051
10.963000,0.0068,-0.0373,-0.0274,0.047
10.969000,0.0285,-0.0158,-0.0476,0.058
10.974000,0.0333,-0.0313,-0.0747,0.088
10.994000,0.0249,-0.0122,-0.1113,0.115
10.996000,0.0428,0.0079,-0.1050,0.114
10.997000,0.0283,0.0255,-0.0666,0.077
10.998000,0.0293,0.0192,-0.0797,0.087
11.000000,0.0243,0.0461,-0.0513,0.073
11.004000,0.0359,0.0492,-0.0421,0.074
11.010000,0.0047,0.0190,-0.0460,0.050
11.023000,0.0022,0.0033,-0.0451,0.045
11.025000,0.0318,0.0079,-0.0823,0.089
11.025000,0.0124,-0.0220,-0.0479,0.054
11.037000,-0.0067,-0.0267,-0.0197,0.034
11.038000,0.0172,-0.0385,-0.0523,0.067
11.039000,0.0493,-0.0206,-0.0012,0.053
11.062000,0.0478,-0.0193,0.0711,0.088
11.063000,0.0192,-0.0406,0.0765,0.089
11.064000,0.0383,-0.0273,0.0491,0.068
11.064000,0.0574,-0.0604,0.0528,0.099
11.065000,0.0397,-0.0411,0.0448,0.073
11.070000,0.0161,-0.0456,0.0154,0.051
11.075000,-0.0000,-0.0466,-0.0127,0.048
11.080000,0.0278,-0.0594,-0.0548,0.085
11.085000,0.0208,-0.0103,-0.0990,0.102
11.090000,0.0257,-0.0021,-0.1229,0.126
11.107000,0.0115,0.0062,-0.1287,0.129
11.108000,0.0471,0.0167,-0.1263,0.136
11.110000,0.0408,0.0249,-0.1488,0.156
11.132000,0.0310,0.0187,-0.1403,0.145
11.133000,0.0998,0.0172,-0.0915,0.136
11.134000,0.0565,-0.0068,-0.0836,0.101
11.135000,0.0600,-0.0580,-0.0983,0.129
11.136000,0.0768,-0.0577,-0.0727,0.120
11.137000,0.0994,-0.0742,-0.0000,0.124
11.141000,0.0721,-0.0668,0.0313,0.103
11.146000,0.0380,-0.0655,0.0315,0.082
11.151000,0.0303,-0.0713,0.0424,0.088
11.155000,0.0098,-0.0925,0.0862,0.127
11.161000,0.0014,-0.0376,0.0773,0.086
11.166000,-0.0521,-0.0069,0.0853,0.100
11.171000,-0.0295,0.0497,0.0790,0.098
11.176000,-0.0081,0.0560,0.0409,0.070
11.191000,-0.0189,0.0528,0.0175,0.059
11.192000,-0.0308,0.0461,0.0040,0.056
11.193000,-0.0201,0.0454,-0.0376,0.062
11.216000,-0.0095,0.0589,-0.0954,0.113
11.217000,-0.0015,0.0166,-0.0813,0.083
11.218000,-0.0068,0.0198,-0.0838,0.086
11.218000,0.0072,-0.0138,-0.1077,0.109
11.219000,0.0400,-0.0401,-0.1207,0.133
11.222000,0.0049,0.0075,-0.1015,0.102
11.227000,0.0366,-0.0261,-0.0932,0.103
11.232000,0.0301,-0.0035,-0.0944,0.099
11.236000,0.0341,-0.0429,-0.0719,0.090
11.242000,0.0381,-0.0012,-0.0364,0.053
11.247000,0.0052,-0.0239,-0.0154,0.029
11.252000,0.0118,-0.0085,-0.0170,0.022
11.257000,0.0229,-0.0299,0.0324,0.050
11.262000,0.0183,-0.0155,0.0353,0.043
11.267000,0.0150,0.0036,0.0372,0.040
11.272000,0.0188,-0.0036,0.0439,0.048
11.279000,0.0012,0.0119,0.0364,0.038
11.282000,0.0278,-0.0049,0.0528,0.060
11.288000,0.0233,-0.0108,-0.0008,0.026
11.293000,0.0165,-0.0178,-0.0277,0.037
11.297000,0.0204,-0.0130,-0.0129,0.027
11.303000,0.0529,-0.0046,-0.0447,0.069
11.308000,0.0484,-0.0070,-0.0832,0.097
11.326000,0.0737,0.0167,-0.1002,0.125
11.327000,0.0467,0.0188,-0.1301,0.139
11.328000,0.0353,0.0137,-0.1256,0.131
11.329000,0.0394,0.0063,-0.1283,0.134
11.333000,0.0638,-0.0130,-0.1359,0.151
11.338000,0.0714,0.0272,-0.1343,0.154
11.343000,0.0634,0.0255,-0.1172,0.136
11.359000,0.0390,-0.0035,-0.1348,0.140
11.360000,0.0538,0.0034,-0.0801,0.097
11.360000,0.0400,0.0150,-0.0828,0.093
11.373000,0.0062,-0.0080,-0.0879,0.088
11.374000,0.0036,-0.0106,-0.0313,0.033
11.375000,-0.0063,-0.0275,0.0331,0.043
11.386000,-0.0148,-0.0406,0.0316,0.054
11.388000,-0.0278,-0.0156,0.0424,0.053
11.390000,0.0009,-0.0087,0.0746,0.075
11.394000,-0.0396,0.0196,0.0296,0.053
11.399000,-0.0323,0.0002,0.0123,0.035
11.404000,-0.0132,-0.0203,0.0117,0.027
11.409000,-0.0132,-0.0346,-0.0187,0.041
11.422000,-0.0192,-0.0405,-0.0346,0.057
11.423000,0.0033,-0.0345,-0.0147,0.038
11.423000,0.0006,-0.0309,-0.0200,0.037
11.448000,0.0227,-0.0225,-0.0468,0.057
11.449000,0.0174,-0.0617,-0.0162,0.066
11.449000,0.0443,-0.0662,-0.0299,0.085
11.450000,0.0248,-0.0173,-0.0460,0.055
11.450000,-0.0015,-0.0555,-0.0144,0.057
11.454000,-0.0109,-0.0423,-0.0697,0.082
11.459000,0.0083,-0.0151,-0.0583,0.061
11.464000,-0.0178,-0.0153,-0.0541,0.059
11.469000,-0.0305,-0.0405,-0.0335,0.061
11.474000,-0.0301,-0.0157,-0.0416,0.054
11.479000,-0.0249,-0.0220,-0.0356,0.049
11.484000,-0.0162,-0.0365,-0.0023,0.040
11.490000,-0.0124,0.0049,0.0108,0.017
11.495000,-0.0111,0.0009,0.0499,0.051
11.499000,-0.0216,-0.0244,0.0555,0.064
11.505000,-0.0001,-0.0020,0.0220,0.022
11.510000,-0.0025,-0.0177,-0.0254,0.031
11.516000,-0.0406,0.0023,-0.0070,0.041
11.520000,-0.0833,0.0032,-0.0053,0.084
11.526000,-0.0594,0.0042,-0.0202,0.063
11.542000,0.0056,-0.0137,-0.0980,0.099
11.545000,0.0263,-0.0316,-0.0789,0.089
11.546000,0.0256,-0.0161,-0.0625,0.069
11.548000,0.0512,-0.0079,-0.0867,0.101
11.550000,0.0518,0.0132,-0.0656,0.085
11.556000,0.0238,0.0033,-0.0802,0.084
11.578000,0.0245,-0.0255,-0.0532,0.064
11.579000,-0.0059,-0.0266,-0.0821,0.087
11.580000,0.0128,-0.0124,-0.0467,0.050
11.581000,-0.0042,-0.0209,-0.0342,0.040
11.582000,-0.0022,-0.0079,-0.0492,0.050
11.586000,-0.0086,-0.0579,-0.0319,0.067
11.591000,0.0302,-0.0209,0.0077,0.038
11.597000,0.0271,0.0064,0.0611,0.067
11.601000,0.0097,-0.0177,0.0179,0.027
11.606000,0.0115,-0.0178,0.0095,0.023
11.613000,-0.0127,-0.0499,0.0476,0.070
11.617000,0.0070,-0.0532,0.0629,0.083
11.621000,0.0159,-0.0506,-0.0110,0.054
11.626000,0.0260,-0.0350,-0.0212,0.049
11.641000,0.0015,-0.0064,-0.0397,0.040
11.643000,-0.0026,-0.0315,-0.0425,0.053
11.644000,0.0029,0.0054,-0.0300,0.031
11.672000,0.0060,0.0206,-0.0604,0.064
11.674000,-0.0114,0.0119,-0.0490,0.052
11.675000,-0.0179,0.0164,-0.0745,0.078
11.676000,-0.0149,0.0149,-0.0748,0.078
11.676000,-0.0037,0.0004,-0.0918,0.092
11.677000,0.0109,-0.0033,-0.1054,0.106
11.677000,0.0159,0.0108,-0.1070,0.109
11.685000,0.0339,-0.0216,-0.0922,0.101
11.687000,0.0174,-0.0145,-0.0835,0.087
11.692000,0.0401,0.0270,-0.0691,0.084
11.697000,0.0057,-0.0043,-0.0774,0.078
11.702000,0.0023,-0.0021,-0.0096,0.010
11.707000,-0.0128,0.0286,-0.0029,0.031
11.713000,-0.0124,-0.0193,-0.0330,0.040
11.717000,-0.0133,-0.0169,-0.0117,0.024
11.722000,-0.0118,0.0115,0.0156,0.023
11.727000,-0.0353,-0.0183,-0.0190,0.044
11.732000,-0.0373,0.0114,-0.0411,0.057
11.737000,-0.0428,-0.0136,-0.0144,0.047
11.743000,-0.0186,-0.0255,-0.0199,0.037
11.758000,-0.0065,0.0104,-0.0157,0.020
11.759000,0.0338,-0.0051,-0.0435,0.055
11.759000,0.0239,-0.0620,-0.0427,0.079
11.783000,0.0569,-0.0485,-0.0670,0.100
11.784000,0.0290,-0.0481,-0.0377,0.068
11.785000,0.0084,-0.0394,-0.0516,0.065
11.786000,0.0212,-0.0201,-0.0276,0.040
11.786000,0.0160,-0.0247,-0.0027,0.030
11.788000,0.0392,-0.0387,-0.0481,0.073
11.794000,0.0315,-0.0076,-0.0136,0.035
11.799000,0.0226,-0.0134,-0.0053,0.027
11.804000,0.0174,-0.0169,0.0053,0.025
11.809000,-0.0045,-0.0143,0.0018,0.015
11.814000,-0.0024,0.0143,-0.0003,0.015
11.819000,-0.0396,-0.0118,-0.0261,0.049
11.824000,-0.0052,-0.0080,-0.0278,0.029
11.830000,0.0026,-0.0090,-0.0045,0.010
11.833000,0.0235,-0.0005,-0.0171,0.029
11.839000,0.0217,-0.0075,-0.0130,0.026
11.844000,-0.0229,-0.0193,-0.0447,0.054
11.857000,0.0077,-0.0522,-0.0167,0.055
11.858000,0.0178,-0.0066,-0.0401,0.044
11.859000,0.0006,-0.0338,-0.0468,0.058
11.882000,0.0083,-0.0500,-0.0166,0.053
11.883000,-0.0090,-0.0364,-0.0425,0.057
11.884000,0.0013,-0.0622,-0.0161,0.064
11.884000,0.0245,-0.0165,0.0244,0.038
11.885000,-0.0060,0.0028,-0.0149,0.016
11.889000,-0.0077,-0.0446,-0.0277,0.053
11.894000,0.0239,-0.0584,-0.0203,0.066
11.900000,0.0124,-0.0281,0.0191,0.036
11.904000,0.0222,-0.0349,-0.0119,0.043
11.909000,0.0128,-0.0273,0.0061,0.031
11.914000,-0.0190,-0.0008,-0.0223,0.029
11.920000,-0.0103,-0.0041,-0.0091,0.014
11.924000,0.0008,-0.0158,-0.0280,0.032
11.930000,-0.0038,-0.0273,-0.0397,0.048
11.935000,-0.0071,-0.0126,-0.0262,0.030
11.940000,-0.0175,0.0031,-0.0091,0.020
11.947000,-0.0099,0.0010,0.0058,0.012
11.950000,-0.0013,0.0000,-0.0104,0.011
11.955000,-0.0093,-0.0532,0.0295,0.061
11.960000,-0.0099,-0.0323,0.0371,0.050
11.981000,-0.0033,-0.0378,-0.0112,0.040
11.983000,0.0211,-0.0159,-0.0365,0.045
11.983000,0.0108,-0.0014,-0.0119,0.016
11.984000,0.0126,-0.0202,-0.0457,0.052
11.987000,0.0225,-0.0116,-0.0569,0.062
11.990000,0.0206,-0.0173,-0.0576,0.064
11.995000,0.0174,-0.0266,-0.0549,0.063
12.013000,0.0272,0.0176,-0.0879,0.094
12.014000,-0.0070,0.0212,-0.0732,0.076
12.015000,-0.0124,0.0199,-0.0646,0.069
12.016000,0.0190,0.0424,-0.0535,0.071
12.021000,-0.0257,0.0338,-0.0520,0.067
12.025000,-0.0238,0.0289,-0.0789,0.087
12.031000,-0.0255,0.0609,-0.0959,0.116
12.036000,-0.0318,0.0486,-0.0286,0.065
12.041000,-0.0049,0.0448,-0.0625,0.077
12.057000,-0.0209,-0.0196,-0.0474,0.055
12.058000,0.0238,-0.0383,0.0020,0.045
12.058000,0.0136,-0.0698,0.0857,0.111
12.061000,0.0228,-0.0739,0.0955,0.123
12.068000,0.0663,-0.1028,0.0995,0.158
12.071000,0.0431,-0.1030,0.1464,0.184
12.076000,0.0011,-0.1055,0.1254,0.164
12.091000,-0.0395,-0.0676,0.0558,0.096
12.092000,-0.0169,-0.0894,0.0130,0.092
12.093000,0.0186,-0.1027,-0.0535,0.117
12.116000,0.0157,-0.0495,-0.1529,0.162
12.117000,0.0152,-0.0311,-0.1783,0.182
12.118000,0.0537,0.0179,-0.1846,0.193
12.118000,0.0229,0.0559,-0.1531,0.165
12.120000,0.0196,0.0806,-0.1529,0.174
12.122000,0.0248,0.0729,-0.1669,0.184
12.127000,0.0432,0.0486,-0.0739,0.098
12.132000,0.0154,-0.0148,-0.0864,0.089
12.137000,-0.0048,-0.0421,-0.0301,0.052
12.142000,0.0134,-0.0656,0.0458,0.081
12.147000,0.0363,-0.0582,0.0522,0.086
12.152000,-0.0323,-0.0722,0.0654,0.103
12.157000,-0.0244,-0.0648,0.1082,0.128
12.162000,-0.0426,-0.0444,0.1186,0.134
12.167000,-0.0002,-0.0443,0.0921,0.102
12.173000,0.0025,-0.0453,0.0968,0.107
12.177000,0.0206,-0.0024,0.0610,0.064
12.191000,0.0646,0.0342,0.0042,0.073
12.192000,0.0476,0.0433,-0.0390,0.075
12.193000,0.0486,0.0309,-0.0876,0.105
12.219000,0.0601,0.0602,-0.1060,0.136
12.220000,0.0394,0.0597,-0.1431,0.160
12.221000,0.0321,0.0555,-0.1277,0.143
12.221000,0.0344,0.0787,-0.1751,0.195
12.222000,0.0426,0.0744,-0.1757,0.196
12.223000,0.0378,0.0179,-0.1299,0.137
12.228000,0.0153,-0.0274,-0.1416,0.145
12.234000,0.0155,-0.0261,-0.1247,0.128
12.238000,0.0334,-0.0486,-0.0974,0.114
12.243000,0.0132,-0.0412,-0.0347,0.055
12.249000,0.0133,-0.0445,-0.0059,0.047
12.254000,0.0205,-0.0585,0.0191,0.065
12.258000,-0.0044,-0.0545,0.0569,0.079
12.264000,0.0123,-0.0921,0.0507,0.106
12.269000,0.0076,-0.0795,0.0518,0.095
12.273000,0.0196,-0.0231,0.0423,0.052
12.279000,0.0137,-0.0230,0.0234,0.036
12.283000,-0.0231,-0.0561,0.0083,0.061
12.289000,0.0187,-0.0485,-0.0340,0.062
12.294000,0.0340,-0.0160,-0.0629,0.073
12.311000,0.0385,-0.0420,-0.0823,0.100
12.312000,0.0418,-0.0607,-0.0553,0.092
12.312000,0.0511,-0.0318,-0.0204,0.064
12.339000,0.0413,-0.0269,-0.0642,0.081
12.340000,0.0542,-0.0601,-0.0225,0.084
12.341000,0.0433,-0.0919,-0.0479,0.112
12.341000,0.0407,-0.0889,-0.0151,0.099
12.342000,0.0360,-0.0695,0.0175,0.080
12.343000,-0.0078,-0.0632,0.0462,0.079
12.345000,0.0081,-0.0535,0.0118,0.055
12.353000,0.0131,-0.0628,0.0252,0.069
12.355000,0.0014,-0.0815,0.0422,0.092
12.360000,-0.0090,-0.0454,-0.0039,0.046
12.365000,-0.0133,-0.0061,-0.0258,0.030
12.370000,-0.0069,-0.0217,0.0095,0.025
12.375000,-0.0292,-0.0003,-0.0375,0.048
12.381000,0.0212,-0.0005,-0.0423,0.047
12.384000,-0.0012,0.0409,-0.0291,0.050
12.390000,-0.0176,0.0547,-0.0361,0.068
12.395000,0.0113,0.0399,-0.0427,0.059
12.400000,-0.0051,0.0038,0.0376,0.038
12.405000,0.0120,0.0025,0.0285,0.031
12.410000,-0.0020,0.0107,0.0195,0.022
12.425000,-0.0005,-0.0262,-0.0178,0.032
12.426000,0.0152,-0.0283,-0.0570,0.065
12.427000,0.0248,-0.0436,-0.0843,0.098
12.447000,0.0403,-0.0563,-0.0761,0.103
12.448000,-0.0036,-0.0667,-0.0421,0.079
12.449000,0.0014,-0.0401,-0.0513,0.065
12.449000,-0.0139,-0.0102,-0.0012,0.017
12.450000,-0.0158,-0.0080,0.0282,0.033
12.456000,-0.0236,-0.0057,0.0326,0.041
12.461000,-0.0171,0.0393,-0.0532,0.068
12.466000,-0.0047,0.0316,-0.0077,0.033
12.470000,0.0028,0.0170,-0.0229,0.029
12.476000,0.0088,-0.0152,0.0061,0.019
12.481000,0.0087,-0.0068,-0.0208,0.024
12.486000,0.0109,-0.0055,-0.0356,0.038
12.491000,0.0262,0.0052,-0.0503,0.057
12.496000,0.0435,0.0065,-0.0637,0.077
12.502000,0.0239,0.0041,-0.1020,0.105
12.507000,0.0460,-0.0161,-0.0880,0.101
12.511000,0.0715,-0.0231,-0.0183,0.077
12.528000,0.0482,-0.0253,-0.0646,0.085
12.530000,0.0489,-0.0145,-0.0704,0.087
12.531000,0.0557,-0.0240,-0.0440,0.075
12.531000,0.0507,0.0022,-0.0972,0.110
12.536000,0.0316,0.0126,-0.0446,0.056
12.542000,0.0199,0.0218,-0.0495,0.058
12.559000,0.0144,0.0083,-0.0281,0.033
12.561000,-0.0101,-0.0039,-0.0020,0.011
12.561000,0.0061,-0.0196,-0.0380,0.043
12.562000,-0.0041,-0.0137,-0.0284,0.032
12.573000,-0.0069,-0.0009,-0.0404,0.041
12.574000,-0.0026,-0.0047,-0.0262,0.027
12.577000,0.0229,-0.0322,-0.0488,0.063
12.586000,-0.0029,-0.0429,-0.0203,0.048
12.587000,-0.0082,-0.0309,-0.0313,0.045
12.593000,0.0127,-0.0512,-0.0090,0.053
12.598000,-0.0035,-0.0581,-0.0155,0.060
12.603000,0.0196,-0.0651,-0.0362,0.077
12.607000,0.0437,-0.0470,-0.0296,0.071
12.613000,0.0378,-0.0599,-0.0289,0.077
12.626000,0.0379,-0.0384,-0.0166,0.056
12.627000,0.0297,-0.0324,-0.0353,0.056
12.628000,0.0523,-0.0348,-0.0599,0.087
12.651000,0.0724,-0.0194,-0.0545,0.093
12.652000,0.0638,-0.0243,-0.0552,0.088
12.653000,0.0290,-0.0374,-0.0714,0.086
12.653000,0.0456,-0.0053,-0.0613,0.077
12.654000,0.0525,-0.0091,-0.0337,0.063
12.658000,0.0358,-0.0010,-0.0501,0.062
12.663000,0.0584,-0.0014,-0.0475,0.075
12.668000,0.0642,-0.0302,-0.0473,0.085
12.674000,0.0452,-0.0398,-0.0187,0.063
12.678000,0.0346,-0.0066,-0.0212,0.041
12.684000,0.0398,-0.0212,-0.0154,0.048
12.688000,0.0058,-0.0120,-0.0465,0.048
12.693000,0.0432,-0.0041,-0.0559,0.071
12.699000,0.0472,-0.0080,-0.0617,0.078
12.704000,0.0581,-0.0191,-0.0355,0.071
12.709000,0.0475,-0.0229,-0.0261,0.059
12.713000,0.0323,-0.0196,-0.0143,0.040
12.719000,0.0374,-0.0151,-0.0227,0.046
12.724000,0.0329,-0.0070,-0.0287,0.044
12.729000,0.0309,-0.0537,-0.0465,0.077
12.746000,0.0193,-0.0477,-0.0485,0.071
12.747000,0.0007,-0.0465,-0.0672,0.082
12.748000,0.0012,-0.0524,-0.0383,0.065
12.749000,0.0253,-0.0570,-0.0049,0.063
12.754000,0.0171,-0.0830,-0.0478,0.097
12.759000,0.0162,-0.0969,-0.0524,0.111
12.779000,0.0307,-0.0810,-0.0405,0.096
12.780000,0.0261,-0.0676,-0.0369,0.081
12.781000,-0.0107,-0.0734,-0.0597,0.095
12.782000,-0.0294,-0.0505,-0.0740,0.094
12.784000,-0.0016,-0.0148,-0.1096,0.111
12.789000,-0.0038,0.0146,-0.0963,0.097
12.795000,-0.0001,-0.0107,-0.0570,0.058
12.802000,0.0475,0.0057,-0.0559,0.074
12.805000,0.0328,0.0136,-0.0891,0.096
12.810000,0.0588,0.0061,-0.0223,0.063
12.816000,0.0656,0.0117,-0.0177,0.069
12.821000,0.0711,-0.0053,-0.0701,0.100
12.825000,0.0599,0.0063,-0.0662,0.090
12.830000,0.0620,-0.0047,-0.0730,0.096
12.837000,0.0783,-0.0536,-0.0834,0.126
12.840000,0.0754,-0.0297,-0.0760,0.111
12.845000,0.0487,-0.0167,-0.0902,0.104
12.863000,0.0627,-0.0169,-0.1235,0.140
12.864000,0.0873,-0.0575,-0.0939,0.141
12.865000,0.0689,-0.0124,-0.0812,0.107
12.866000,0.0364,-0.0305,-0.0568,0.074
12.871000,0.0553,-0.0223,-0.0423,0.073
12.875000,0.0528,-0.0333,-0.0444,0.077
12.880000,0.0430,-0.0311,-0.0323,0.062
12.891000,0.0251,-0.0371,-0.0214,0.050
12.893000,0.0371,-0.0301,0.0122,0.049
12.896000,0.0419,-0.0220,0.0161,0.050
12.904000,0.0514,-0.0281,0.0177,0.061
12.906000,0.0372,-0.0366,0.0217,0.057
12.911000,0.0444,-0.0521,-0.0407,0.080
12.916000,0.0196,-0.0354,0.0102,0.042
12.921000,0.0554,-0.0379,-0.0247,0.071
12.926000,0.0387,-0.0356,-0.0560,0.077
12.933000,0.0495,0.0011,-0.0598,0.078
12.936000,0.0244,-0.0076,-0.0685,0.073
12.941000,0.0577,0.0087,-0.0724,0.093
12.947000,0.0740,0.0510,-0.1048,0.138
12.952000,0.0450,0.0158,-0.0931,0.105
12.957000,0.0638,0.0295,-0.0945,0.118
12.962000,0.0550,0.0658,-0.1101,0.140
12.985000,0.0413,0.0566,-0.1294,0.147
12.986000,0.0279,0.0344,-0.1106,0.119
12.987000,0.0455,0.0136,-0.1275,0.136
12.988000,0.0380,0.0475,-0.1101,0.126
12.990000,0.0389,0.0361,-0.0845,0.100
12.993000,0.0066,0.0365,-0.0246,0.045
13.018000,0.0352,-0.0140,0.0444,0.058
13.019000,0.0054,0.0130,0.1428,0.143
13.020000,0.0187,-0.0575,0.1279,0.141
13.021000,0.0415,-0.0241,0.1064,0.117
13.023000,0.0571,-0.0337,0.0983,0.119
13.023000,0.0724,-0.0729,0.0904,0.137
13.028000,0.0627,-0.0501,0.0266,0.085
13.043000,0.0258,-0.0441,0.0298,0.059
13.044000,0.0283,-0.0286,0.0032,0.040
13.045000,0.0187,-0.0096,-0.0388,0.044
13.048000,0.0292,-0.0087,-0.0651,0.072
13.057000,0.0254,-0.0148,-0.0532,0.061
13.058000,0.0429,0.0290,-0.0604,0.080
13.063000,0.0412,0.0452,-0.0769,0.098
13.076000,0.0349,0.0363,-0.0824,0.097
13.077000,0.0404,0.0667,-0.1010,0.128
13.078000,0.0459,0.0647,-0.1014,0.129
13.099000,0.0717,0.0201,-0.0829,0.111
13.100000,0.0369,0.0042,-0.0837,0.092
13.100000,0.0558,-0.0259,0.0068,0.062
13.101000,0.0415,-0.0189,0.0585,0.074
13.103000,0.0239,-0.0085,0.0703,0.075
13.108000,-0.0219,-0.0469,0.0771,0.093
13.113000,-0.0198,-0.0553,0.0899,0.107
13.118000,0.0002,-0.0364,0.0717,0.080
13.123000,-0.0489,-0.0247,0.0680,0.087
13.129000,-0.0300,-0.0012,0.0763,0.082
13.133000,-0.0160,0.0364,0.0502,0.064
13.139000,-0.0035,-0.0047,0.0411,0.042
13.143000,0.0006,0.0282,0.0132,0.031
13.162000,-0.0144,0.0668,0.0106,0.069
13.163000,-0.0104,0.0447,-0.0737,0.087
13.164000,0.0041,0.0345,-0.0550,0.065
13.167000,0.0043,0.0542,-0.0577,0.079
13.195000,0.0187,0.0002,-0.0887,0.091
13.196000,0.0295,-0.0333,-0.1194,0.127
13.197000,0.0296,-0.0344,-0.1069,0.116
13.198000,-0.0023,-0.0403,-0.0520,0.066
13.198000,-0.0008,-0.0556,-0.0272,0.062
13.199000,-0.0135,-0.0482,0.0130,0.052
13.200000,0.0178,-0.0646,0.0384,0.077
13.204000,0.0061,-0.0619,0.0341,0.071
13.210000,-0.0020,-0.0841,0.0631,0.105
13.215000,-0.0386,-0.0729,0.0740,0.111
13.220000,-0.0250,-0.0190,0.0574,0.065
13.224000,-0.0472,-0.0285,0.0968,0.111
13.230000,-0.0409,-0.0023,0.0647,0.077
13.235000,-0.0347,-0.0095,0.0530,0.064
13.240000,-0.0427,-0.0048,0.0427,0.061
13.244000,-0.0485,0.0166,0.0359,0.063
13.251000,-0.0424,0.0152,0.0129,0.047
13.255000,-0.0114,0.0519,-0.0039,0.053
13.260000,0.0051,0.0301,-0.0409,0.051
13.267000,0.0097,-0.0011,0.0020,0.010
13.270000,0.0272,0.0060,-0.0411,0.050
13.275000,0.0293,0.0153,-0.0672,0.075
13.280000,0.0337,0.0341,-0.0897,0.102
13.298000,0.0380,0.0219,-0.0789,0.090
13.299000,0.0127,0.0061,-0.0185,0.023
13.300000,0.0067,0.0011,-0.0442,0.045
13.301000,-0.0077,-0.0109,-0.0329,0.036
13.305000,-0.0220,-0.0027,-0.0194,0.029
13.310000,-0.0173,0.0151,-0.0191,0.030
13.330000,-0.0221,-0.0101,0.0324,0.040
13.331000,-0.0125,-0.0446,0.0253,0.053
13.332000,-0.0017,-0.0182,0.0482,0.052
13.334000,-0.0231,-0.0182,0.0448,0.054
13.343000,-0.0052,-0.0051,0.0310,0.032
13.344000,-0.0290,0.0198,0.0471,0.059
13.346000,-0.0170,-0.0018,0.0431,0.046
13.357000,-0.0264,0.0101,0.0416,0.050
13.358000,-0.0191,-0.0031,0.0271,0.033
13.362000,-0.0357,-0.0067,-0.0016,0.036
13.368000,-0.0237,0.0040,-0.0185,0.030
13.371000,-0.0166,-0.0162,-0.0366,0.043
13.377000,-0.0264,-0.0351,-0.0238,0.050
13.382000,0.0176,-0.0230,0.0067,0.030
13.399000,0.0150,-0.0171,0.0010,0.023
13.400000,-0.0100,-0.0111,-0.0200,0.025
13.401000,0.0219,-0.0171,-0.0172,0.033
13.403000,0.0252,-0.0456,0.0176,0.055
13.407000,-0.0047,-0.0098,0.0295,0.031
13.412000,0.0120,0.0068,0.0141,0.020
13.432000,-0.0129,0.0350,0.0058,0.038
13.433000,-0.0210,0.0036,-0.0085,0.023
13.434000,-0.0159,0.0176,-0.0001,0.024
13.435000,-0.0026,0.0101,-0.0095,0.014
13.437000,-0.0131,0.0216,-0.0107,0.027
13.442000,-0.0306,-0.0026,0.0058,0.031
13.448000,-0.0278,-0.0111,-0.0122,0.032
13.452000,0.0010,0.0077,-0.0337,0.035
13.457000,0.0237,0.0086,-0.0109,0.027
13.463000,-0.0214,0.0154,-0.0050,0.027
13.468000,-0.0091,0.0198,0.0176,0.028
13.473000,-0.0123,-0.0151,0.0032,0.020
13.478000,-0.0119,0.0310,-0.0171,0.037
13.498000,0.0183,0.0281,0.0055,0.034
13.499000,0.0102,0.0097,-0.0361,0.039
13.500000,0.0105,0.0046,-0.0324,0.034
13.501000,-0.0272,-0.0028,0.0153,0.031
13.503000,-0.0101,0.0147,-0.0194,0.026
13.508000,-0.0048,-0.0071,-0.0276,0.029
13.512000,0.0040,-0.0062,0.0001,0.007
13.532000,0.0483,-0.0041,-0.0154,0.051
13.533000,0.0413,-0.0079,-0.0247,0.049
13.534000,-0.0061,-0.0093,0.0194,0.022
13.535000,-0.0151,-0.0333,-0.0045,0.037
13.538000,-0.0048,-0.0334,0.0062,0.034
13.544000,0.0196,-0.0347,0.0169,0.043
13.549000,0.0367,-0.0062,0.0536,0.065
13.554000,0.0193,-0.0244,0.0211,0.038
13.559000,0.0021,-0.0103,0.0696,0.070
13.564000,0.0099,0.0048,0.0252,0.027
13.569000,-0.0096,0.0163,-0.0070,0.020
13.574000,0.0186,0.0050,0.0026,0.020
13.579000,0.0170,0.0153,0.0180,0.029
13.599000,0.0046,-0.0090,-0.0238,0.026
13.600000,0.0089,-0.0141,0.0013,0.017
13.601000,0.0192,0.0283,0.0070,0.035
13.601000,0.0436,-0.0246,-0.0109,0.051
13.604000,0.0003,-0.0426,0.0176,0.046
13.609000,0.0535,-0.0320,0.0080,0.063
13.614000,0.0302,-0.0097,-0.0397,0.051
13.630000,0.0416,0.0351,-0.0357,0.065
13.631000,0.0043,0.0011,-0.0235,0.024
13.632000,0.0232,-0.0635,0.0053,0.068
13.634000,0.0229,-0.0243,-0.0232,0.041
13.645000,0.0179,-0.0317,-0.0489,0.061
13.646000,-0.0108,-0.0271,0.0277,0.040
13.650000,0.0035,-0.0321,-0.0054,0.033
13.660000,0.0260,-0.0263,-0.0169,0.041
13.661000,0.0161,-0.0099,0.0050,0.020
13.665000,-0.0150,-0.0447,0.0207,0.051
13.671000,0.0124,-0.0211,-0.0030,0.025
13.675000,-0.0020,-0.0023,0.0021,0.004
13.680000,-0.0080,-0.0324,-0.0129,0.036
13.685000,-0.0187,-0.0504,0.0078,0.054
13.690000,-0.0055,0.0101,-0.0107,0.016
13.695000,0.0002,-0.0058,-0.0303,0.031
13.702000,0.0096,0.0010,-0.0163,0.019
13.705000,0.0297,-0.0196,-0.0275,0.045
13.710000,0.0103,0.0027,-0.0375,0.039
13.716000,0.0006,-0.0429,-0.0402,0.059
13.733000,0.0196,-0.0489,-0.0430,0.068
13.734000,0.0005,-0.0133,-0.0456,0.048
13.735000,-0.0055,-0.0137,-0.0079,0.017
13.738000,0.0374,-0.0117,-0.0075,0.040
13.741000,0.0477,0.0177,-0.0439,0.067
13.747000,0.0129,0.0040,-0.0527,0.054
13.765000,-0.0014,-0.0333,-0.0329,0.047
13.767000,0.0022,-0.0323,-0.0098,0.034
13.767000,0.0034,-0.0076,0.0227,0.024
13.768000,0.0069,-0.0258,-0.0235,0.036
13.771000,-0.0145,-0.0249,-0.0338,0.044
13.776000,0.0237,-0.0359,-0.0071,0.044
13.781000,0.0082,0.0055,-0.0341,0.036
13.786000,0.0022,-0.0129,-0.0076,0.015
13.792000,0.0082,0.0235,-0.0466,0.053
13.797000,0.0154,0.0145,-0.0522,0.056
13.802000,0.0116,0.0009,-0.0268,0.029
13.806000,-0.0076,0.0312,-0.0146,0.035
13.812000,0.0115,0.0044,-0.0097,0.016
13.832000,-0.0064,0.0074,-0.0212,0.023
13.833000,-0.0267,0.0212,0.0258,0.043
13.834000,-0.0015,-0.0150,0.0047,0.016
13.835000,0.0045,-0.0130,0.0255,0.029
13.838000,0.0058,-0.0121,0.0047,0.014
13.842000,-0.0118,-0.0327,-0.0219,0.041
13.847000,-0.0293,-0.0329,-0.0529,0.069
13.863000,0.0116,-0.0260,-0.0554,0.062
13.864000,0.0284,-0.0405,-0.0710,0.087
13.865000,-0.0144,-0.0359,-0.0510,0.064
13.876000,0.0357,-0.0290,-0.0588,0.075
13.877000,0.0105,0.0027,-0.0904,0.091
13.878000,0.0092,0.0284,-0.0636,0.070
13.882000,0.0375,0.0158,-0.0360,0.054
13.888000,0.0300,-0.0217,-0.0490,0.061
13.893000,0.0261,-0.0054,-0.0489,0.056
13.898000,0.0067,0.0001,-0.0417,0.042
13.902000,-0.0162,-0.0074,-0.0771,0.079
13.908000,0.0122,0.0041,-0.1087,0.109
13.912000,-0.0012,0.0060,-0.0664,0.067
13.930000,-0.0180,-0.0100,-0.0030,0.021
13.932000,-0.0158,-0.0067,0.0539,0.057
13.933000,-0.0182,0.0000,0.0750,0.077
13.961000,-0.0004,-0.0443,0.0865,0.097
13.963000,0.0316,-0.0681,0.0876,0.115
13.963000,0.0184,-0.0633,0.1101,0.128
13.964000,-0.0101,-0.0501,0.1076,0.119
13.965000,0.0055,-0.0608,0.0932,0.111
13.965000,-0.0313,-0.0382,0.0232,0.055
13.966000,-0.0084,-0.0276,-0.0286,0.041
13.976000,0.0260,-0.0326,-0.0301,0.051
13.977000,0.0137,-0.0137,-0.0544,0.058
13.978000,-0.0033,-0.0009,-0.0584,0.059
13.983000,0.0498,0.0047,-0.1040,0.115
13.996000,0.0406,0.0292,-0.0613,0.079
13.997000,0.0207,0.0500,-0.0499,0.074
13.999000,0.0248,0.0409,-0.0694,0.084
14.004000,0.0205,-0.0001,-0.0747,0.077
14.009000,0.0459,-0.0171,-0.0705,0.086
14.013000,0.0250,-0.0185,-0.0392,0.050
14.019000,0.0208,-0.0508,0.0001,0.055
14.023000,-0.0022,-0.0699,0.0414,0.081
14.029000,-0.0143,-0.0685,0.0396,0.080
14.035000,-0.0155,-0.1005,0.0698,0.123
14.039000,-0.0475,-0.0752,0.0925,0.128
14.044000,-0.0757,-0.0466,0.0629,0.109
14.049000,-0.0706,-0.0348,0.0644,0.102
14.062000,-0.0763,0.0161,0.0410,0.088
14.063000,-0.0369,0.0274,-0.0035,0.046
14.064000,-0.0240,0.0352,-0.0188,0.047
14.084000,-0.0267,0.0547,-0.0458,0.076
14.085000,-0.0308,0.0421,-0.0820,0.097
14.086000,-0.0147,0.0522,-0.0690,0.088
14.086000,-0.0012,0.0504,-0.1178,0.128
14.090000,0.0157,0.0652,-0.1034,0.123
14.095000,0.0301,0.0537,-0.1034,0.120
14.100000,0.0527,0.0186,-0.1057,0.120
14.105000,0.0276,-0.0209,-0.0974,0.103
14.110000,0.0264,-0.0139,-0.0833,0.089
14.115000,-0.0019,-0.0140,-0.0172,0.022
14.120000,-0.0029,-0.0129,-0.0108,0.017
14.124000,0.0009,-0.0261,0.0050,0.027
14.129000,-0.0108,-0.0189,0.0349,0.041
14.136000,-0.0331,-0.0130,0.0267,0.044
14.140000,-0.0471,-0.0237,0.0638,0.083
14.145000,-0.0467,-0.0035,0.0627,0.078
14.150000,-0.0415,-0.0202,0.0867,0.098
14.166000,-0.0519,-0.0154,0.0572,0.079
14.168000,-0.0362,-0.0093,0.0518,0.064
14.168000,-0.0089,-0.0259,0.0181,0.033
14.171000,-0.0268,0.0004,0.0157,0.031
14.175000,-0.0196,0.0004,-0.0246,0.031
14.181000,0.0266,0.0099,-0.0549,0.062
14.198000,0.0001,0.0051,-0.0601,0.060
14.199000,0.0129,0.0158,-0.0879,0.090
14.200000,0.0101,-0.0093,-0.0942,0.095
14.201000,0.0382,-0.0246,-0.1209,0.129
14.212000,0.0506,-0.0197,-0.0952,0.110
14.213000,0.0570,-0.0160,-0.0592,0.084
14.216000,0.0575,-0.0195,-0.0724,0.094
14.224000,0.0341,-0.0229,-0.0417,0.059
14.226000,0.0073,-0.0169,-0.0480,0.051
14.231000,0.0045,-0.0002,-0.0164,0.017
14.236000,0.0100,-0.0335,-0.0172,0.039
14.242000,0.0200,-0.0451,0.0308,0.058
14.246000,-0.0092,-0.0328,0.0238,0.042
14.253000,-0.0119,-0.0349,0.0373,0.053
14.257000,-0.0288,-0.0156,0.0558,0.065
14.262000,-0.0254,-0.0036,0.0648,0.070
14.267000,-0.0173,0.0250,0.0386,0.049
14.284000,-0.0259,0.0391,0.0306,0.056
14.285000,-0.0153,0.0175,0.0110,0.026
14.286000,-0.0013,-0.0051,-0.0143,0.015
14.289000,-0.0278,-0.0144,-0.0455,0.055
14.292000,0.0016,-0.0474,-0.0077,0.048
14.297000,0.0237,-0.0469,-0.0344,0.063
14.317000,0.0206,-0.0405,-0.0433,0.063
14.318000,0.0081,-0.0365,-0.0036,0.038
14.319000,0.0100,-0.0457,-0.0272,0.054
14.320000,0.0285,-0.0465,-0.0044,0.055
14.323000,0.0255,-0.0401,-0.0281,0.055
14.328000,0.0155,-0.0172,-0.0327,0.040
14.332000,0.0091,-0.0016,-0.0217,0.024
14.337000,-0.0115,0.0079,-0.0441,0.046
14.343000,0.0095,0.0245,-0.0439,0.051
14.348000,0.0326,0.0089,-0.0259,0.043
14.354000,0.0341,-0.0006,0.0039,0.034
14.358000,0.0013,-0.0172,0.0062,0.018
14.363000,-0.0216,0.0317,0.0049,0.039
14.369000,0.0196,0.0220,-0.0153,0.033
14.373000,0.0203,0.0076,-0.0269,0.035
14.378000,0.0376,0.0111,-0.0085,0.040
14.383000,0.0465,0.0039,-0.0402,0.062
14.398000,0.0221,0.0122,-0.0501,0.056
14.399000,0.0063,0.0027,-0.0491,0.050
14.400000,0.0179,0.0110,-0.0446,0.049
14.425000,0.0069,0.0145,-0.0364,0.040
14.426000,0.0612,-0.0212,-0.0662,0.093
14.427000,0.0166,0.0076,-0.0508,0.054
14.427000,0.0306,-0.0031,-0.0151,0.034
14.428000,0.0503,0.0041,-0.0438,0.067
14.429000,0.0460,-0.0077,-0.0853,0.097
14.434000,0.0418,0.0043,-0.0432,0.060
14.439000,0.0175,-0.0158,-0.0679,0.072
14.444000,0.0265,-0.0037,-0.0723,0.077
14.449000,0.0497,0.0119,-0.0375,0.063
14.454000,0.0455,-0.0214,-0.0479,0.069
14.459000,0.0567,-0.0519,-0.0465,0.090
14.464000,0.0381,-0.0194,-0.0130,0.045
14.470000,0.0518,0.0129,-0.0202,0.057
14.474000,0.0500,-0.0239,-0.0108,0.056
14.479000,0.0374,-0.0379,-0.0135,0.055
14.484000,0.0392,-0.0161,-0.0019,0.042
14.498000,0.0138,-0.0076,0.0403,0.043
14.499000,0.0455,0.0174,0.0371,0.061
14.500000,0.0296,-0.0195,0.0183,0.040
14.527000,-0.0017,-0.0039,-0.0041,0.006
14.528000,0.0456,0.0021,-0.0110,0.047
14.529000,0.0295,0.0056,-0.0300,0.042
14.529000,0.0278,0.0079,-0.0452,0.054
14.530000,0.0344,-0.0040,-0.0247,0.043
14.530000,0.0124,0.0317,-0.0197,0.039
14.539000,-0.0046,0.0516,0.0224,0.056
14.540000,-0.0085,0.0537,0.0336,0.064
14.545000,0.0021,0.0272,0.0488,0.056
14.550000,0.0079,0.0176,0.0440,0.048
14.555000,0.0088,0.0105,-0.0128,0.019
14.560000,0.0063,-0.0251,-0.0132,0.029
14.564000,0.0100,-0.0378,-0.0444,0.059
14.570000,-0.0078,-0.0434,-0.0528,0.069
14.576000,0.0079,-0.0429,-0.0316,0.054
14.580000,0.0212,-0.0390,0.0128,0.046
14.584000,0.0106,-0.0684,-0.0135,0.071
14.590000,0.0322,-0.0868,-0.0395,0.101
14.595000,0.0310,-0.0292,-0.0419,0.060
14.601000,0.0158,-0.0338,-0.0254,0.045
14.618000,0.0363,-0.0538,0.0135,0.066
14.619000,0.0423,-0.0748,-0.0191,0.088
14.620000,0.0838,-0.0209,-0.0289,0.091
14.620000,0.0835,-0.0398,-0.0149,0.094
14.626000,0.0689,-0.0431,-0.0330,0.088
14.631000,0.0448,-0.0333,-0.0329,0.065
14.652000,0.0482,-0.0152,-0.0566,0.076
14.653000,0.0707,-0.0044,-0.0588,0.092
14.654000,0.0336,-0.0294,-0.0810,0.092
14.655000,0.0382,0.0017,-0.0961,0.103
14.656000,0.0238,-0.0233,-0.0827,0.089
14.661000,0.0261,-0.0290,-0.0600,0.072
14.666000,0.0260,-0.0146,-0.0648,0.071
14.672000,0.0272,0.0021,-0.0709,0.076
14.677000,0.0165,-0.0182,-0.0629,0.067
14.682000,0.0249,0.0080,-0.0549,0.061
14.702000,0.0237,0.0173,-0.0589,0.066
14.704000,0.0047,-0.0138,-0.0428,0.045
14.705000,0.0157,-0.0257,-0.0137,0.033
14.705000,0.0078,-0.0422,-0.0323,0.054
14.708000,-0.0107,-0.0254,0.0100,0.029
14.711000,0.0006,-0.0135,0.0059,0.015
14.717000,0.0001,-0.0171,-0.0101,0.020
14.734000,0.0043,-0.0432,-0.0223,0.049
14.736000,0.0396,-0.0217,-0.0238,0.051
14.737000,0.0117,-0.0158,-0.0419,0.046
14.739000,0.0183,0.0019,-0.0635,0.066
14.742000,-0.0061,0.0266,-0.1040,0.108
14.747000,0.0206,0.0393,-0.0884,0.099
14.754000,0.0246,0.0257,-0.0814,0.089
14.758000,0.0426,-0.0007,-0.0994,0.108
14.762000,0.0474,0.0300,-0.1053,0.119
14.768000,0.0415,0.0071,-0.0864,0.096
14.772000,0.0581,0.0128,-0.0770,0.097
14.777000,0.0437,-0.0004,-0.0949,0.104
14.782000,0.0471,0.0173,-0.0842,0.098
14.787000,-0.0122,0.0028,-0.1056,0.106
14.792000,0.0191,-0.0318,-0.0828,0.091
14.798000,0.0180,-0.0114,-0.0768,0.080
14.803000,0.0228,0.0100,-0.0577,0.063
14.808000,0.0301,-0.0258,0.0148,0.042
14.813000,0.0467,-0.0280,0.0440,0.070
14.818000,0.0750,-0.0467,0.0778,0.118
14.835000,0.0841,-0.0665,0.0829,0.136
14.836000,0.0625,-0.0803,0.0621,0.119
14.837000,0.0578,-0.0856,0.0462,0.113
14.838000,0.0733,-0.0992,0.0055,0.123
14.843000,0.0305,-0.0830,-0.0063,0.089
14.848000,0.0013,-0.0587,-0.0538,0.080
14.867000,0.0101,-0.0239,-0.0950,0.098
14.869000,-0.0134,-0.0119,-0.1039,0.105
14.870000,-0.0084,-0.0082,-0.1021,0.103
14.871000,-0.0106,0.0061,-0.1276,0.128
14.874000,0.0179,0.0441,-0.1255,0.134
14.879000,0.0118,0.0438,-0.0950,0.105
14.884000,0.0176,0.0244,-0.0434,0.053
14.890000,0.0212,-0.0316,-0.0399,0.055
14.893000,0.0380,-0.0800,-0.0257,0.092
14.899000,0.0359,-0.0879,-0.0345,0.101
14.922000,0.0448,-0.1408,0.0017,0.148
14.925000,0.0465,-0.1019,-0.0018,0.112
14.926000,0.0197,-0.1014,0.0004,0.103
14.927000,0.0479,-0.1176,0.0593,0.140
14.927000,0.0187,-0.0682,0.0512,0.087
14.934000,0.0182,-0.0775,0.0266,0.084
14.935000,0.0068,-0.0154,0.0152,0.023
14.954000,0.0679,-0.0131,0.0362,0.078
14.956000,0.0522,0.0117,0.0193,0.057
14.956000,0.0520,0.0186,-0.0235,0.060
14.957000,0.0376,0.0528,-0.0908,0.112
14.960000,0.0540,0.0559,-0.0801,0.112
14.966000,0.0322,0.0411,-0.1181,0.129
14.970000,0.0285,0.0633,-0.1237,0.142
14.981000,0.0130,-0.0061,-0.1281,0.129
14.981000,0.0248,-0.0108,-0.1491,0.152
14.984000,0.0130,0.0070,-0.1665,0.167
14.993000,-0.0130,-0.0146,-0.1613,0.162
14.995000,-0.0267,-0.0181,-0.1267,0.131
15.000000,-0.0367,-0.0407,-0.0782,0.095
15.006000,0.0055,-0.0346,-0.0171,0.039
15.010000,-0.0298,-0.0440,-0.0181,0.056
15.015000,-0.0424,-0.0212,0.0070,0.048
15.036000,-0.0192,-0.0247,0.0497,0.059
15.037000,-0.0260,-0.0080,0.0199,0.034
15.037000,-0.0257,-0.0353,0.0461,0.063
15.038000,-0.0075,0.0136,0.0201,0.025
15.041000,0.0022,0.0040,0.0085,0.010
15.045000,0.0035,-0.0056,0.0016,0.007
15.051000,0.0320,0.0003,0.0054,0.032
15.067000,0.0152,-0.0068,-0.0572,0.060
15.068000,0.0483,-0.0092,-0.0636,0.080
15.069000,0.0764,0.0003,-0.0772,0.109
15.081000,0.0439,-0.0698,-0.0315,0.088
15.082000,0.0543,-0.0088,-0.0800,0.097
15.083000,0.0469,-0.0112,-0.0568,0.075
15.086000,0.0193,-0.0219,-0.0185,0.035
15.095000,0.0358,-0.0171,-0.0732,0.083
15.096000,0.0118,-0.0468,-0.0944,0.106
15.101000,0.0449,-0.0156,-0.0750,0.089
15.106000,0.0421,-0.0251,-0.0631,0.080
15.111000,0.0060,-0.0238,-0.0893,0.093
15.116000,0.0106,-0.0166,-0.0382,0.043
15.121000,0.0342,-0.0201,-0.0206,0.045
15.127000,0.0540,-0.0201,-0.0091,0.058
15.132000,0.0058,-0.0116,-0.0342,0.037
15.136000,0.0330,0.0371,0.0182,0.053
15.154000,0.0255,0.0035,0.0099,0.028
15.155000,0.0180,-0.0249,0.0388,0.050
15.157000,-0.0073,-0.0520,0.0368,0.064
15.158000,-0.0014,-0.0681,0.0173,0.070
15.162000,0.0033,-0.0473,-0.0010,0.047
15.167000,-0.0015,-0.0410,0.0033,0.041
15.188000,-0.0169,-0.0347,-0.0068,0.039
15.189000,-0.0202,-0.0570,-0.0171,0.063
15.190000,-0.0282,-0.0388,-0.0013,0.048
15.191000,0.0041,-0.0362,0.0260,0.045
15.192000,0.0242,-0.0265,0.0139,0.038
15.197000,0.0194,-0.0085,0.0138,0.025
15.202000,0.0158,0.0045,0.0267,0.031
15.208000,0.0025,0.0021,0.0277,0.028
15.213000,0.0202,-0.0241,0.0109,0.033
15.217000,0.0294,0.0247,0.0050,0.039
15.223000,0.0492,0.0079,-0.0483,0.069
15.228000,0.0403,0.0221,-0.0395,0.061
15.233000,0.0695,0.0563,-0.0652,0.111
15.239000,0.0734,0.0451,-0.0717,0.112
15.243000,0.0252,0.0495,-0.0650,0.085
15.248000,0.0295,-0.0031,-0.0310,0.043
15.253000,0.0399,0.0040,-0.0448,0.060
15.271000,0.0276,-0.0317,-0.0619,0.075
15.273000,0.0272,0.0090,-0.0350,0.045
15.273000,0.0281,-0.0148,-0.0367,0.049
15.275000,0.0134,-0.0444,-0.0586,0.075
15.278000,-0.0153,-0.0333,-0.0008,0.037
15.283000,-0.0140,-0.0414,0.0114,0.045
15.305000,-0.0236,-0.0244,-0.0394,0.052
15.306000,-0.0164,-0.0064,-0.0089,0.020
15.307000,-0.0023,-0.0240,-0.0403,0.047
15.307000,-0.0239,-0.0214,-0.0133,0.035
15.309000,-0.0036,-0.0307,-0.0101,0.033
15.314000,-0.0263,-0.0316,-0.0142,0.043
15.319000,-0.0073,-0.0693,-0.0280,0.075
15.324000,0.0281,-0.0497,-0.0405,0.070
15.329000,0.0301,-0.0457,-0.0315,0.063
15.334000,0.0178,-0.0465,-0.0429,0.066
15.352000,0.0578,-0.0235,-0.0650,0.090
15.354000,0.0739,-0.0222,0.0020,0.077
15.354000,0.0577,-0.0565,0.0102,0.081
15.355000,0.0500,-0.0454,-0.0280,0.073
15.360000,0.0400,-0.0759,-0.0173,0.088
15.365000,0.0527,-0.0517,0.0596,0.095
15.369000,0.0309,-0.0490,0.0315,0.066
15.376000,0.0319,-0.0107,0.0024,0.034
15.380000,0.0032,-0.0392,0.0162,0.043
15.385000,0.0044,-0.0164,0.0396,0.043
15.389000,0.0187,-0.0402,0.0141,0.047
15.394000,-0.0288,-0.0364,0.0055,0.047
15.399000,-0.0060,-0.0184,0.0018,0.019
15.406000,-0.0237,-0.0326,-0.0007,0.040
15.410000,-0.0412,-0.0241,0.0005,0.048
15.415000,-0.0217,-0.0227,-0.0065,0.032
15.419000,-0.0429,-0.0072,-0.0218,0.049
15.424000,-0.0093,-0.0298,-0.0383,0.049
15.429000,-0.0066,-0.0249,-0.0333,0.042
15.435000,-0.0005,-0.0236,0.0168,0.029
15.440000,0.0199,-0.0034,-0.0216,0.030
15.444000,0.0259,-0.0082,-0.0265,0.038
15.450000,0.0044,-0.0332,-0.0302,0.045
15.470000,-0.0001,-0.0474,-0.0302,0.056
15.473000,0.0145,-0.0460,0.0184,0.052
15.474000,0.0395,-0.0244,0.0012,0.046
15.475000,0.0417,-0.0137,-0.0242,0.050
15.475000,0.0201,-0.0339,-0.0256,0.047
15.479000,0.0451,-0.0195,-0.0235,0.054
15.485000,0.0343,-0.0231,-0.0155,0.044
15.499000,0.0365,-0.0148,-0.0099,0.041
15.500000,0.0340,-0.0053,0.0026,0.035
15.501000,0.0257,-0.0007,-0.0252,0.036
15.514000,0.0197,-0.0104,-0.0148,0.027
15.515000,0.0210,0.0038,-0.0141,0.026
15.515000,-0.0027,-0.0321,-0.0027,0.032
15.526000,-0.0143,-0.0272,-0.0055,0.031
15.527000,0.0169,0.0096,-0.0036,0.020
15.530000,0.0195,-0.0358,-0.0409,0.058
15.536000,0.0148,-0.0452,-0.0018,0.048
15.541000,0.0388,-0.0355,-0.0105,0.054
15.546000,0.0223,-0.0556,-0.0310,0.067
15.551000,0.0037,-0.0554,-0.0311,0.064
15.556000,0.0374,-0.0136,-0.0064,0.040
15.561000,0.0328,-0.0114,-0.0070,0.035
15.566000,0.0473,-0.0223,-0.0398,0.066
15.572000,0.0236,0.0097,-0.0913,0.095
15.576000,0.0142,0.0212,-0.0689,0.074
15.581000,0.0133,-0.0125,-0.0681,0.071
15.587000,0.0087,0.0005,-0.0377,0.039
15.603000,0.0137,0.0275,-0.0526,0.061
15.604000,0.0127,0.0342,-0.0685,0.078
15.605000,0.0106,0.0194,-0.0369,0.043
15.635000,0.0013,-0.0084,-0.0518,0.052
15.636000,-0.0114,-0.0050,-0.0737,0.075
15.637000,-0.0121,0.0126,-0.0896,0.091
15.638000,-0.0069,0.0074,-0.0901,0.091
15.638000,-0.0041,0.0106,-0.0728,0.074
15.639000,-0.0061,-0.0052,0.0085,0.012
15.640000,0.0060,-0.0042,0.0716,0.072
15.642000,0.0217,-0.0495,0.1012,0.115
15.647000,0.0302,-0.0647,0.1391,0.156
15.652000,0.0435,-0.0738,0.1593,0.181
15.657000,0.0555,-0.0615,0.1226,0.148
15.663000,0.0130,-0.1194,0.0899,0.150
15.668000,0.0003,-0.1197,0.0193,0.121
15.688000,-0.0064,-0.0560,0.0012,0.056
15.689000,0.0036,-0.0261,-0.0086,0.028
15.690000,-0.0069,0.0155,-0.0435,0.047
15.690000,-0.0091,0.0508,-0.1008,0.113
15.692000,-0.0090,0.0419,-0.1828,0.188
15.698000,0.0111,0.0972,-0.1560,0.184
15.704000,0.0214,0.0987,-0.1460,0.178
15.718000,0.0118,0.0645,-0.1609,0.174
15.719000,0.0058,0.0662,-0.1282,0.144
15.720000,0.0402,-0.0010,-0.1017,0.109
15.732000,0.0592,-0.0321,-0.0174,0.070
15.733000,0.0284,-0.0511,0.0103,0.059
15.734000,0.0478,-0.0843,0.0352,0.103
15.744000,0.0329,-0.1101,0.0419,0.122
15.746000,0.0182,-0.1252,0.0769,0.148
15.749000,0.0156,-0.1246,0.0713,0.144
15.757000,0.0130,-0.0695,0.0882,0.113
15.759000,0.0007,-0.0052,0.0720,0.072
15.764000,0.0406,0.0289,0.0607,0.079
15.769000,0.0455,0.0604,0.0675,0.101
15.773000,0.0182,0.0501,0.0031,0.053
15.779000,0.0197,0.0815,-0.0203,0.086
15.784000,0.0150,0.0842,-0.0290,0.090
15.800000,0.0292,0.1071,-0.0646,0.128
15.800000,0.0184,0.0550,-0.1012,0.117
15.801000,0.0101,0.0723,-0.1220,0.142
15.804000,0.0219,0.0656,-0.1546,0.169
15.819000,0.0327,0.0400,-0.1761,0.184
15.820000,0.0279,-0.0116,-0.1381,0.141
15.821000,-0.0007,-0.0413,-0.0745,0.085
15.830000,0.0019,-0.0447,-0.0779,0.090
15.831000,-0.0405,-0.0338,-0.0493,0.072
15.834000,-0.0388,-0.0432,0.0147,0.060
15.841000,-0.0026,-0.0608,0.0546,0.082
15.845000,-0.0048,-0.0439,0.0358,0.057
15.850000,-0.0402,-0.0436,0.0507,0.078
15.857000,-0.0218,-0.0280,0.0573,0.067
15.860000,-0.0142,-0.0279,0.0498,0.059
15.865000,-0.0188,-0.0360,0.0568,0.070
15.870000,-0.0352,0.0082,0.0317,0.048
15.875000,-0.0291,0.0200,-0.0074,0.036
15.880000,0.0269,0.0020,-0.0412,0.049
15.885000,0.0089,-0.0111,-0.0344,0.037
15.901000,0.0337,0.0139,-0.0752,0.084
15.902000,0.0630,0.0138,-0.0753,0.099
15.903000,0.0647,-0.0148,-0.0934,0.115
15.926000,0.0665,0.0363,-0.0570,0.095
15.927000,0.0576,0.0300,-0.0875,0.109
15.927000,0.0416,0.0368,-0.0633,0.084
15.928000,0.0282,0.0043,-0.0810,0.086
15.928000,0.0030,-0.0029,-0.0320,0.032
15.930000,0.0290,-0.0077,-0.0477,0.056
15.936000,0.0205,-0.0102,-0.0348,0.042
15.941000,0.0109,0.0087,-0.0412,0.043
