time,ax,ay,az,aT
0.004000,0.1826,0.1510,0.7146,0.753
0.005000,0.1678,0.1282,1.1681,1.187
0.005000,0.1266,0.0936,1.5136,1.522
0.006000,0.2252,0.0331,1.7410,1.756
0.007000,0.3614,-0.0717,1.7936,1.831
0.009000,0.5072,-0.1517,1.6778,1.759
0.010000,0.5991,-0.1742,1.3316,1.471
0.015000,0.5507,-0.1973,0.8829,1.059
0.019000,0.3714,-0.2276,0.4034,0.594
0.034000,0.2110,-0.1611,-0.0251,0.267
0.035000,0.0782,-0.1620,-0.3329,0.378
0.035000,0.0607,-0.1519,-0.5829,0.605
0.039000,0.0543,-0.1372,-0.6478,0.664
0.047000,-0.0113,-0.1066,-0.6216,0.631
0.049000,-0.0267,-0.0359,-0.5576,0.559
0.054000,-0.0427,0.0151,-0.4592,0.461
0.064000,0.0266,0.0392,-0.3793,0.382
0.065000,0.1023,0.0401,-0.3335,0.351
0.070000,0.1752,0.0166,-0.3393,0.382
0.078000,0.1849,0.0030,-0.3368,0.384
0.079000,0.1853,0.0220,-0.3630,0.408
0.085000,0.1752,0.0097,-0.3110,0.357
0.090000,0.1506,0.0329,-0.2202,0.269
0.102000,0.1191,0.0770,-0.1585,0.213
0.103000,0.0508,0.0926,-0.0827,0.134
0.105000,0.0105,0.0652,0.0182,0.069
0.124000,0.0185,0.0653,0.1250,0.142
0.126000,0.0487,0.0793,0.2106,0.230
0.127000,0.0207,0.0951,0.1746,0.200
0.128000,0.0101,0.1032,0.1916,0.218
0.130000,-0.0781,0.0596,0.1456,0.176
0.135000,-0.1014,0.1021,0.0529,0.153
0.141000,-0.0831,0.1313,0.1075,0.189
0.145000,-0.0846,0.1630,0.0913,0.205
0.150000,-0.1204,0.1218,0.0211,0.173
0.156000,-0.1279,0.0965,-0.0145,0.161
0.163000,-0.1070,0.0605,-0.0095,0.123
0.166000,-0.0420,0.0590,0.0482,0.087
0.171000,0.0025,-0.0052,0.1241,0.124
0.186000,0.0055,-0.0245,0.1908,0.192
0.187000,-0.0565,-0.0256,0.2928,0.299
0.188000,-0.0568,-0.0349,0.3764,0.382
0.190000,-0.0743,0.0096,0.3842,0.391
0.207000,-0.0960,-0.0119,0.4420,0.452
0.209000,-0.0791,-0.0539,0.4625,0.472
0.209000,-0.0598,-0.0111,0.4526,0.457
0.211000,-0.0861,0.0226,0.3512,0.362
0.216000,-0.0632,-0.0042,0.2468,0.255
0.221000,-0.0488,-0.0479,0.1534,0.168
0.226000,-0.0576,-0.0566,0.1255,0.149
0.231000,-0.0932,-0.0266,0.0735,0.122
0.237000,-0.1057,0.0172,0.0329,0.112
0.241000,-0.1128,0.0224,-0.0525,0.126
0.247000,-0.0978,0.0273,-0.0453,0.111
0.252000,-0.0738,-0.0041,-0.0757,0.106
0.257000,-0.0721,0.0012,-0.0768,0.105
0.262000,-0.0997,0.0455,-0.0020,0.110
0.267000,-0.0908,0.0650,0.0784,0.136
0.272000,-0.0047,0.0133,0.1343,0.135
0.277000,0.0018,0.0098,0.1649,0.165
0.282000,0.0270,-0.0019,0.1043,0.108
0.287000,0.0326,-0.0087,0.0090,0.035
0.294000,0.0152,0.0061,-0.0778,0.080
0.297000,0.0242,0.0508,-0.1419,0.153
0.302000,0.0480,-0.0025,-0.1664,0.173
0.307000,0.0637,-0.0186,-0.0425,0.079
0.324000,0.0427,-0.0265,0.0514,0.072
0.325000,0.0326,-0.0061,0.1623,0.166
0.327000,0.0035,-0.0436,0.1753,0.181
0.331000,-0.0513,-0.0349,0.2418,0.250
0.335000,-0.1078,-0.0280,0.2713,0.293
0.357000,-0.1343,0.0018,0.2631,0.295
0.358000,-0.1202,-0.0106,0.2220,0.253
0.359000,-0.1112,0.0064,0.2931,0.313
0.361000,-0.0730,0.0099,0.3613,0.369
0.362000,-0.0243,0.0036,0.4717,0.472
0.363000,-0.0731,0.0375,0.5040,0.511
0.368000,-0.1456,0.0577,0.4780,0.503
0.373000,-0.1831,-0.0066,0.4331,0.470
0.379000,-0.2487,0.0471,0.3695,0.448
0.383000,-0.2059,0.0899,0.3904,0.450
0.388000,-0.1520,0.0982,0.3159,0.364
0.395000,-0.1322,0.0996,0.2914,0.335
0.399000,-0.1295,0.1063,0.3071,0.350
0.404000,-0.1374,0.0958,0.3280,0.368
0.409000,-0.1431,0.0754,0.2936,0.335
0.423000,-0.1610,0.1057,0.2993,0.356
0.425000,-0.1318,0.1615,0.2403,0.318
0.426000,-0.0942,0.0646,0.1894,0.221
0.452000,-0.0456,0.0393,0.1765,0.187
0.453000,0.0172,0.0675,0.0190,0.072
0.454000,0.0411,0.1334,-0.2114,0.253
0.455000,0.0680,0.1942,-0.3045,0.367
0.456000,0.0818,0.2130,-0.2819,0.363
0.456000,0.0667,0.1730,-0.2945,0.348
0.465000,0.0594,0.0945,-0.2694,0.292
0.466000,0.0484,0.1138,-0.1669,0.208
0.470000,0.0275,0.1037,-0.0994,0.146
0.475000,-0.0741,0.2085,-0.0295,0.223
0.480000,-0.0567,0.2742,0.2141,0.352
0.485000,-0.0313,0.3542,0.4200,0.550
0.489000,0.0077,0.3561,0.4889,0.605
0.494000,0.0870,0.3326,0.4668,0.580
0.500000,0.1469,0.2566,0.4286,0.521
0.505000,0.2188,0.1499,0.4593,0.530
0.524000,0.2091,0.0523,0.4808,0.527
0.526000,0.2436,0.0451,0.4142,0.483
0.527000,0.2816,-0.0235,0.3516,0.451
0.528000,0.3305,-0.1077,0.2497,0.428
0.536000,0.3553,-0.1124,0.2063,0.426
0.538000,0.3774,-0.1259,0.2797,0.486
0.539000,0.3937,-0.1220,0.5356,0.676
0.557000,0.3259,-0.0841,0.6868,0.765
0.558000,0.2836,-0.0853,0.7681,0.823
0.559000,0.2192,-0.0658,0.7859,0.819
0.562000,0.1951,-0.0047,0.7858,0.810
0.571000,0.1775,0.0548,0.7215,0.745
0.572000,0.1890,0.0793,0.6683,0.699
0.577000,0.1687,0.1033,0.6263,0.657
0.583000,0.1818,0.0548,0.4426,0.482
0.586000,0.2155,0.0593,0.2836,0.361
0.591000,0.2630,0.0754,0.0285,0.275
0.596000,0.2447,0.0664,-0.1726,0.307
0.601000,0.2578,0.0098,-0.2634,0.369
0.606000,0.2362,0.0086,-0.2454,0.341
0.611000,0.2471,0.0411,-0.1449,0.289
0.617000,0.3677,0.0507,-0.0002,0.371
0.621000,0.4338,0.0551,0.0191,0.438
0.641000,0.5164,0.0423,-0.0678,0.523
0.643000,0.5876,-0.0304,-0.1329,0.603
0.644000,0.5877,-0.0840,-0.1332,0.608
0.645000,0.6395,-0.0800,-0.2867,0.705
0.648000,0.7023,-0.1043,-0.3410,0.788
0.651000,0.7353,-0.1028,-0.3801,0.834
0.656000,0.7395,-0.1280,-0.4579,0.879
0.674000,0.7023,-0.2121,-0.4990,0.887
0.676000,0.6139,-0.2210,-0.4726,0.806
0.677000,0.5395,-0.2003,-0.3774,0.688
0.678000,0.4503,-0.1345,-0.3091,0.563
0.689000,0.3507,-0.0801,-0.2114,0.417
0.690000,0.2618,0.0179,-0.0807,0.275
0.692000,0.2021,0.0791,0.1010,0.239
0.702000,0.1582,0.1008,0.2025,0.276
0.704000,0.1650,0.0491,0.3244,0.367
0.707000,0.1827,-0.0031,0.5841,0.612
0.715000,0.2095,-0.0671,0.7738,0.804
0.717000,0.1901,-0.1146,0.8721,0.900
0.722000,0.1445,-0.1840,0.9450,0.974
0.740000,0.0825,-0.1774,1.0656,1.083
0.741000,0.0434,-0.0797,1.2256,1.229
0.743000,-0.0347,-0.0669,1.3487,1.351
0.744000,-0.0552,-0.0170,1.3608,1.362
0.767000,-0.0629,0.0266,1.2981,1.300
0.769000,-0.1359,0.0244,1.1501,1.158
0.770000,-0.1861,0.0113,0.9393,0.958
0.771000,-0.1927,-0.0257,0.7041,0.730
0.772000,-0.1634,-0.0982,0.4276,0.468
0.773000,-0.0553,-0.0692,0.2444,0.260
0.778000,0.0744,-0.0271,0.0849,0.116
0.783000,0.1307,-0.0003,-0.2030,0.241
0.787000,0.1737,-0.0350,-0.3564,0.398
0.793000,0.1626,-0.1095,-0.3183,0.374
0.798000,0.1487,-0.1444,-0.2684,0.339
0.803000,0.1526,-0.1781,-0.1494,0.278
0.808000,0.1846,-0.2007,-0.0403,0.276
0.814000,0.2055,-0.2364,0.0556,0.318
0.818000,0.2928,-0.3116,0.1191,0.444
0.823000,0.2815,-0.3221,0.1766,0.463
0.838000,0.2203,-0.3186,0.0907,0.398
0.839000,0.1491,-0.2936,-0.0248,0.330
0.840000,0.1244,-0.2877,-0.0697,0.321
0.843000,0.0682,-0.2863,-0.1159,0.316
0.862000,0.0093,-0.3062,-0.1431,0.338
0.863000,0.0648,-0.2791,-0.2003,0.350
0.864000,0.0492,-0.2362,-0.2613,0.356
0.865000,0.0824,-0.2182,-0.3045,0.384
0.869000,0.1345,-0.2060,-0.3190,0.403
0.874000,0.0742,-0.1528,-0.4665,0.496
0.879000,-0.0086,-0.1495,-0.4982,0.520
0.884000,-0.1630,-0.1505,-0.4250,0.479
0.889000,-0.2688,-0.1020,-0.3571,0.458
0.895000,-0.3832,-0.0756,-0.1449,0.417
0.899000,-0.4864,-0.0632,0.0621,0.494
0.904000,-0.6671,-0.0415,0.5275,0.851
0.910000,-0.7937,0.0715,1.3547,1.572
0.915000,-0.6788,0.1940,1.7958,1.930
0.920000,-0.3628,0.1224,1.4211,1.472
0.924000,-0.1081,-0.1477,0.5308,0.561
0.931000,-0.0290,-0.4108,-0.3039,0.512
0.935000,-0.0749,-0.5525,-0.8478,1.015
0.940000,-0.1320,-0.5821,-1.0392,1.198
0.961000,-0.1487,-0.4900,-0.9372,1.068
0.963000,-0.1522,-0.3568,-0.9055,0.985
0.964000,-0.1809,-0.2831,-0.9690,1.026
0.966000,-0.2088,-0.2521,-0.8837,0.942
0.968000,-0.2129,-0.2489,-0.7630,0.830
0.972000,-0.2180,-0.2604,-0.6020,0.691
0.975000,-0.2492,-0.2540,-0.2963,0.463
1.001000,-0.2807,-0.2315,-0.1289,0.386
1.003000,-0.2755,-0.1747,-0.1167,0.346
1.010000,-0.3393,-0.1259,-0.1339,0.386
1.011000,-0.3813,-0.1268,-0.1899,0.444
1.012000,-0.3438,-0.1211,-0.2468,0.440
1.014000,-0.1871,-0.1731,-0.3667,0.447
1.015000,-0.0659,-0.2360,-0.4684,0.529
1.017000,0.0468,-0.2617,-0.5342,0.597
1.021000,0.0911,-0.3387,-0.6611,0.748
1.026000,0.0901,-0.3971,-0.8302,0.925
1.040000,0.0739,-0.4080,-0.9377,1.025
1.041000,0.0340,-0.4236,-1.0199,1.105
1.048000,0.0119,-0.4353,-1.0197,1.109
1.050000,-0.0564,-0.3726,-1.0133,1.081
1.054000,-0.1982,-0.2692,-0.9723,1.028
1.057000,-0.3999,-0.1202,-0.7710,0.877
1.064000,-0.5096,-0.0541,-0.6090,0.796
1.066000,-0.5376,-0.0186,-0.4033,0.672
1.071000,-0.4893,-0.0332,-0.1811,0.523
1.076000,-0.4209,-0.0773,-0.0444,0.430
1.095000,-0.3738,-0.0755,-0.0243,0.382
1.097000,-0.3159,-0.1297,0.0539,0.346
1.098000,-0.2072,-0.2030,0.1545,0.329
1.099000,-0.0684,-0.3157,0.2165,0.389
1.101000,0.0658,-0.3974,0.2210,0.459
1.106000,0.1373,-0.4423,0.1430,0.485
1.132000,0.1646,-0.4384,0.0410,0.470
1.133000,0.2195,-0.3971,-0.0674,0.459
1.134000,0.3323,-0.3939,-0.0400,0.517
1.134000,0.3677,-0.4170,0.1148,0.568
1.135000,0.3372,-0.4499,0.3506,0.663
1.137000,0.2873,-0.4299,0.3930,0.649
1.142000,0.1609,-0.3998,0.1177,0.447
1.146000,0.0370,-0.3253,-0.3081,0.450
1.152000,-0.0358,-0.2410,-0.6091,0.656
1.157000,-0.1258,-0.1820,-0.7397,0.772
1.174000,-0.1815,-0.0984,-0.8009,0.827
1.175000,-0.2708,-0.0048,-0.7284,0.777
1.176000,-0.3638,0.0147,-0.6905,0.781
1.199000,-0.4897,0.0054,-0.6486,0.813
1.200000,-0.5979,0.0209,-0.6768,0.903
1.202000,-0.6456,0.0483,-0.6963,0.951
1.204000,-0.6252,0.0932,-0.6005,0.872
1.204000,-0.5900,0.1436,-0.4994,0.786
1.205000,-0.5320,0.1849,-0.5497,0.787
1.208000,-0.5257,0.1408,-0.5060,0.743
1.213000,-0.5113,0.0773,-0.4904,0.713
1.218000,-0.4736,0.0467,-0.5124,0.699
1.223000,-0.3766,0.0505,-0.5460,0.665
1.229000,-0.3109,0.0207,-0.4895,0.580
1.233000,-0.2290,0.0015,-0.3693,0.435
1.238000,-0.1388,-0.0550,-0.2822,0.319
1.243000,-0.1080,-0.1431,-0.2113,0.277
1.248000,-0.2691,-0.1231,0.1772,0.345
1.253000,-0.4209,-0.0722,0.5034,0.660
1.258000,-0.4751,-0.0785,0.6017,0.771
1.263000,-0.4299,-0.0008,0.6508,0.780
1.269000,-0.2622,0.0566,0.5836,0.642
1.274000,-0.0932,0.0543,0.5007,0.512
1.290000,0.0610,-0.0362,0.4581,0.464
1.291000,0.1470,-0.1565,0.4597,0.507
1.292000,0.1506,-0.2946,0.4765,0.580
1.317000,0.0357,-0.3282,0.4259,0.539
1.319000,-0.1233,-0.3455,0.3819,0.530
1.320000,-0.2291,-0.3271,0.3848,0.555
1.320000,-0.1601,-0.2451,0.2730,0.400
1.321000,-0.0392,-0.1892,0.2865,0.346
1.322000,0.0706,-0.1557,0.3929,0.429
1.324000,0.1334,-0.2454,0.4743,0.550
1.330000,0.2115,-0.2885,0.4995,0.614
1.334000,0.2467,-0.3199,0.3994,0.568
1.339000,0.1555,-0.3423,0.2212,0.436
1.344000,0.0170,-0.3223,0.0988,0.337
1.349000,-0.0614,-0.2882,-0.0160,0.295
1.355000,-0.0591,-0.1672,-0.0730,0.192
1.359000,0.0011,-0.0739,-0.0569,0.093
1.364000,-0.0412,0.0141,-0.1098,0.118
1.370000,-0.1663,0.0574,-0.1981,0.265
1.375000,-0.3059,0.1543,-0.1917,0.393
1.389000,-0.4594,0.2318,-0.1660,0.541
1.391000,-0.5723,0.2841,-0.0984,0.646
1.391000,-0.6712,0.3076,-0.0703,0.742
1.414000,-0.6501,0.2904,0.0047,0.712
1.415000,-0.5284,0.2266,0.1359,0.591
1.416000,-0.4785,0.1749,0.2323,0.560
1.417000,-0.5205,0.1627,0.1710,0.572
1.417000,-0.5531,0.1223,0.0498,0.569
1.420000,-0.5380,0.1890,-0.0324,0.571
1.425000,-0.4378,0.2327,-0.1536,0.519
1.430000,-0.3071,0.2497,-0.1690,0.430
1.436000,-0.1984,0.3068,0.0350,0.367
1.440000,-0.2337,0.2850,0.2376,0.439
1.446000,-0.2622,0.2511,0.3242,0.487
1.451000,-0.1006,0.1083,0.2519,0.292
1.456000,0.1065,0.0252,0.2445,0.268
1.461000,0.3351,-0.0380,0.4230,0.541
1.465000,0.4605,-0.1723,0.3390,0.597
1.471000,0.4528,-0.3117,0.2137,0.590
1.476000,0.3854,-0.2971,0.2205,0.534
1.480000,0.1634,-0.2533,0.0869,0.314
1.486000,0.0352,-0.2398,-0.1502,0.285
1.491000,-0.0361,-0.1365,-0.2160,0.258
1.496000,-0.1134,-0.0337,-0.0769,0.141
1.508000,-0.1735,0.0211,0.0120,0.175
1.509000,-0.1964,0.0449,-0.0629,0.211
1.531000,-0.3078,0.1410,-0.1776,0.382
1.532000,-0.4876,0.2596,-0.1963,0.586
1.533000,-0.4970,0.3026,-0.2064,0.617
1.534000,-0.4962,0.2701,-0.2628,0.623
1.534000,-0.5347,0.2902,-0.3812,0.718
1.537000,-0.5684,0.3690,-0.2221,0.713
1.542000,-0.5195,0.4282,-0.1084,0.682
1.547000,-0.4236,0.3735,-0.1629,0.588
1.552000,-0.3466,0.3169,-0.2167,0.517
1.557000,-0.3504,0.3195,-0.1419,0.495
1.563000,-0.4866,0.2838,-0.0374,0.565
1.567000,-0.6320,0.2445,-0.0858,0.683
1.572000,-0.5990,0.1919,-0.2500,0.677
1.577000,-0.5186,0.1524,-0.2751,0.607
1.584000,-0.3657,0.1137,-0.1887,0.427
1.588000,-0.1306,0.0326,0.0562,0.146
1.592000,-0.0934,-0.1153,0.0424,0.154
1.601000,0.0870,-0.3117,-0.0254,0.325
1.603000,0.3554,-0.3951,0.1492,0.552
1.608000,0.5559,-0.4294,0.4898,0.856
1.630000,0.6046,-0.4712,0.5457,0.941
1.632000,0.4992,-0.4294,0.4633,0.805
1.633000,0.2811,-0.3443,0.2611,0.516
1.634000,0.0450,-0.2572,-0.0169,0.262
1.635000,-0.0074,-0.1806,-0.1420,0.230
1.638000,0.0276,-0.0183,0.0083,0.034
1.645000,0.0281,0.2209,0.1853,0.290
1.658000,0.0753,0.2140,0.2077,0.308
1.660000,0.0608,0.2123,0.1375,0.260
1.661000,-0.0349,0.2351,0.1266,0.269
1.672000,-0.1325,0.2512,0.1462,0.319
1.673000,-0.2191,0.1639,0.0203,0.274
1.674000,-0.3152,0.0462,-0.2232,0.389
1.679000,-0.3187,-0.0777,-0.2678,0.423
1.684000,-0.2928,-0.1408,-0.2381,0.403
1.689000,-0.1925,-0.2105,-0.0488,0.289
1.694000,-0.0828,-0.3147,-0.0224,0.326
1.699000,0.0959,-0.3219,0.1402,0.364
1.703000,0.4837,-0.1747,0.4270,0.668
1.708000,0.5694,-0.1354,0.1878,0.615
1.723000,0.4047,-0.1245,0.0274,0.424
1.725000,0.3839,0.0705,0.1665,0.424
1.725000,0.4219,0.2508,0.1873,0.525
1.729000,0.2853,0.4213,-0.0561,0.512
1.747000,0.0689,0.4942,-0.3462,0.607
1.749000,-0.0346,0.5538,-0.4304,0.702
1.749000,0.0616,0.6505,-0.3354,0.734
1.750000,0.2903,0.8321,-0.0051,0.881
1.754000,0.6458,1.5685,0.5627,1.787
1.759000,1.0844,1.3898,0.3376,1.795
1.764000,1.2692,0.9000,0.3859,1.603
1.769000,1.2908,0.7794,0.5208,1.595
1.774000,1.2307,0.7376,0.5123,1.524
1.781000,1.1139,0.7896,0.7221,1.545
1.785000,0.9323,0.7703,0.7746,1.436
1.789000,0.7017,0.7238,0.6771,1.214
1.794000,0.4322,0.7077,0.5050,0.971
1.800000,0.3000,0.6935,0.4446,0.877
1.805000,0.2665,0.6368,0.4721,0.836
1.810000,0.3079,0.6281,0.7228,1.006
1.816000,0.3517,0.6558,1.1116,1.338
1.820000,0.3078,0.6619,1.3330,1.520
1.825000,0.0985,0.4619,1.0065,1.112
1.852000,-0.0589,0.2679,0.6844,0.737
1.854000,-0.1168,0.1040,0.6617,0.680
1.855000,-0.0751,-0.0097,0.9884,0.991
1.856000,-0.0468,-0.1405,1.2856,1.294
1.858000,-0.0484,-0.2134,1.4272,1.444
1.860000,-0.1732,-0.2813,1.3599,1.399
1.861000,-0.3646,-0.3654,1.1290,1.241
1.901000,-0.5526,-0.3951,1.0514,1.252
1.902000,-0.5890,-0.3896,1.0935,1.302
1.904000,-0.4797,-0.4375,1.2050,1.369
1.905000,-0.3479,-0.3904,1.2460,1.351
1.907000,-0.3919,-0.3841,1.2927,1.404
1.908000,-0.4739,-0.2926,1.2539,1.372
1.909000,-0.6433,-0.0596,1.1308,1.302
1.910000,-0.8407,0.0809,0.8465,1.196
1.910000,-0.9217,0.1669,0.6031,1.114
1.913000,-0.8205,0.2819,0.6476,1.083
1.917000,-0.6834,0.3221,0.7329,1.053
1.920000,-0.5740,0.3030,0.7612,1.000
1.926000,-0.4801,0.1988,0.7918,0.947
1.942000,-0.4004,0.0668,0.6360,0.755
1.943000,-0.2616,-0.0544,0.5877,0.646
1.944000,-0.1901,-0.1062,0.6012,0.639
1.948000,-0.1321,-0.0849,0.5757,0.597
1.951000,-0.0968,-0.0244,0.5633,0.572
1.956000,-0.1060,0.0935,0.6641,0.679
1.961000,-0.1629,0.1981,0.6819,0.729
1.969000,-0.2085,0.2815,0.5194,0.626
1.971000,-0.2613,0.3937,0.4199,0.632
1.976000,-0.2678,0.5517,0.5229,0.806
1.981000,-0.2278,0.6035,0.8688,1.082
1.986000,-0.2124,0.5135,1.0324,1.172
1.992000,-0.2064,0.2698,1.0647,1.118
1.998000,-0.2814,0.1265,1.1645,1.205
2.003000,-0.3306,-0.1017,1.2620,1.309
2.007000,-0.3565,-0.3068,1.2441,1.330
2.013000,-0.4218,-0.4286,1.2247,1.364
2.018000,-0.4839,-0.4865,1.2177,1.398
2.022000,-0.5416,-0.5620,1.0433,1.303
2.027000,-0.4800,-0.5737,0.9817,1.234
2.034000,-0.4229,-0.6238,1.0240,1.271
2.037000,-0.4000,-0.6078,0.9622,1.206
2.043000,-0.4306,-0.5844,0.9331,1.182
2.062000,-0.3949,-0.6352,0.8677,1.146
2.065000,-0.3704,-0.7674,0.7616,1.143
2.067000,-0.3574,-0.9023,0.6909,1.191
2.070000,-0.3151,-0.9860,0.7869,1.300
2.071000,-0.2456,-1.0713,0.9553,1.456
2.073000,-0.2563,-1.2064,0.8703,1.509
2.077000,-0.2211,-1.4314,0.7182,1.617
2.089000,-0.1610,-1.5812,0.6781,1.728
2.091000,-0.1584,-1.5900,0.8683,1.819
2.104000,-0.1637,-1.5404,1.0912,1.895
2.106000,-0.0763,-1.6439,1.0866,1.972
2.107000,-0.0537,-1.7618,0.9692,2.011
2.109000,-0.1495,-1.7237,0.8706,1.937
2.119000,-0.2531,-1.5899,0.7746,1.787
2.121000,-0.3482,-1.3735,0.7083,1.584
2.123000,-0.3874,-1.1939,0.7145,1.444
2.129000,-0.3857,-1.0521,0.6657,1.303
2.133000,-0.4409,-0.9865,0.6007,1.236
2.139000,-0.5174,-0.9608,0.4098,1.166
2.144000,-0.5675,-0.9737,0.2755,1.160
2.148000,-0.5199,-0.9662,0.4485,1.185
2.153000,-0.3916,-1.0091,0.4533,1.173
2.159000,-0.3159,-1.0375,0.2979,1.125
2.164000,-0.3546,-1.0084,0.1729,1.083
2.169000,-0.3221,-1.0153,-0.0368,1.066
2.173000,-0.2629,-0.9970,-0.2058,1.051
2.179000,-0.1853,-0.9237,-0.2088,0.965
2.191000,0.0638,-0.9262,-0.1812,0.946
2.192000,0.2748,-0.9839,-0.2986,1.064
2.194000,0.3881,-1.0995,-0.4076,1.235
2.217000,0.5268,-1.2237,-0.4818,1.417
2.218000,0.6342,-1.2312,-0.3119,1.420
2.219000,0.7950,-1.2383,-0.1316,1.477
2.220000,0.9391,-1.2999,-0.1911,1.615
2.221000,1.0320,-1.2702,-0.2417,1.654
2.225000,0.9512,-1.0774,-0.2407,1.457
2.230000,0.8703,-0.9287,-0.2700,1.301
2.235000,0.8268,-0.8648,-0.3901,1.258
2.240000,0.7690,-0.8100,-0.4941,1.221
2.245000,0.6413,-0.7034,-0.6260,1.139
2.250000,0.4790,-0.5260,-0.7208,1.013
2.255000,0.3729,-0.3745,-0.7249,0.897
2.260000,0.2918,-0.3304,-0.6673,0.800
2.276000,0.2564,-0.4713,-0.9013,1.049
2.277000,0.2460,-0.6570,-1.1208,1.322
2.278000,0.2842,-0.7380,-1.1988,1.436
2.302000,0.4036,-0.8544,-1.1851,1.516
2.303000,0.4567,-0.8819,-1.0379,1.437
2.304000,0.4315,-0.8398,-0.8213,1.251
2.306000,0.3911,-0.8336,-0.7931,1.215
2.307000,0.3135,-0.9159,-0.9578,1.362
2.308000,0.2153,-0.9598,-1.0393,1.431
2.310000,0.1011,-0.8291,-1.0484,1.340
2.315000,0.0282,-0.7203,-1.0578,1.280
2.321000,0.0096,-0.7682,-0.8969,1.181
2.326000,0.1060,-0.9789,-0.6838,1.199
2.332000,0.2215,-1.2647,-0.6775,1.452
2.337000,0.3300,-1.4438,-0.6673,1.624
2.341000,0.3976,-1.5521,-0.5608,1.697
2.346000,0.4653,-1.6207,-0.4931,1.757
2.351000,0.5739,-1.6377,-0.3397,1.768
2.356000,0.6363,-1.6763,-0.3621,1.829
2.361000,0.5964,-1.7016,-0.5936,1.898
2.367000,0.4464,-1.5618,-0.6673,1.756
2.371000,0.3313,-1.4187,-0.6838,1.609
2.376000,0.2208,-1.2735,-0.8217,1.532
2.393000,0.1846,-1.0511,-0.7902,1.328
2.394000,0.2256,-0.7886,-0.5248,0.974
2.395000,0.2918,-0.6860,-0.2373,0.782
2.397000,0.3815,-0.7382,-0.1030,0.837
2.425000,0.3911,-0.8267,-0.3528,0.980
2.427000,0.3248,-0.9692,-0.5812,1.176
2.428000,0.4191,-1.0482,-0.5508,1.256
2.429000,0.6005,-1.1285,-0.3762,1.333
2.430000,0.7167,-1.1478,-0.1888,1.366
2.431000,0.7876,-1.1634,-0.1259,1.411
2.441000,0.7635,-1.1705,-0.2483,1.419
2.442000,0.6959,-1.0687,-0.2922,1.308
2.443000,0.6535,-0.8606,-0.0448,1.082
2.447000,0.5847,-0.6908,-0.0245,0.905
2.452000,0.4330,-0.6347,-0.4063,0.869
2.457000,0.2533,-0.5475,-0.7011,0.925
2.463000,0.1614,-0.3872,-0.7030,0.819
2.467000,0.1758,-0.2664,-0.6048,0.684
2.472000,0.2369,-0.3585,-0.3577,0.559
2.478000,0.2812,-0.5172,-0.3070,0.664
2.492000,0.2925,-0.5812,-0.3186,0.724
2.493000,0.2475,-0.6042,-0.3769,0.754
2.493000,0.1043,-0.5374,-0.4452,0.706
2.497000,-0.0817,-0.4680,-0.5580,0.733
2.503000,-0.1692,-0.4009,-0.5956,0.738
2.507000,-0.1233,-0.4090,-0.6223,0.755
2.512000,-0.0103,-0.4826,-0.7630,0.903
2.533000,0.1096,-0.5428,-0.7544,0.936
2.534000,0.2156,-0.5715,-0.7064,0.934
2.535000,0.3760,-0.5928,-0.6543,0.960
2.536000,0.4511,-0.5540,-0.7655,1.047
2.538000,0.4860,-0.4708,-0.7372,1.001
2.543000,0.4805,-0.2799,-0.7204,0.910
2.550000,0.4399,-0.1489,-0.7496,0.882
2.554000,0.3849,-0.0932,-0.8620,0.949
2.558000,0.3319,-0.0913,-1.0413,1.097
2.563000,0.2861,-0.0858,-1.0948,1.135
2.568000,0.3451,-0.0743,-0.9582,1.021
2.573000,0.4224,-0.1130,-0.7353,0.856
2.579000,0.5022,-0.2186,-0.7752,0.949
2.584000,0.5965,-0.4509,-0.8924,1.164
2.588000,0.7761,-0.5932,-0.8655,1.305
2.594000,0.9492,-0.6288,-0.7225,1.348
2.617000,0.9847,-0.6548,-0.6836,1.366
2.618000,0.9656,-0.7321,-0.7856,1.444
2.621000,1.0463,-0.6753,-0.6146,1.389
2.622000,1.1142,-0.6196,-0.3437,1.320
2.623000,1.0815,-0.5233,-0.4551,1.285
2.628000,0.8603,-0.3947,-0.5623,1.101
2.629000,0.7129,-0.2890,-0.6574,1.012
2.653000,0.7528,-0.2241,-0.6199,1.001
2.654000,0.8169,-0.1665,-0.5592,1.004
2.655000,0.7988,-0.1556,-0.6184,1.022
2.656000,0.7391,-0.1137,-0.7163,1.036
2.657000,0.6991,-0.1089,-0.7430,1.026
2.659000,0.6321,0.0155,-0.7486,0.980
2.665000,0.6271,-0.0264,-0.7083,0.946
2.670000,0.6344,-0.1518,-0.7811,1.018
2.674000,0.6952,-0.3068,-0.7562,1.072
2.680000,0.8267,-0.4196,-0.4690,1.039
2.685000,0.9211,-0.5178,-0.3459,1.112
2.690000,0.9206,-0.5821,-0.4478,1.178
2.695000,0.8299,-0.5887,-0.4551,1.115
2.710000,0.6655,-0.5533,-0.4906,0.995
2.711000,0.5492,-0.5870,-0.5183,0.956
2.712000,0.4572,-0.5929,-0.4347,0.866
2.715000,0.4083,-0.6214,-0.3782,0.834
2.736000,0.5565,-0.5550,-0.0179,0.786
2.737000,0.5316,-0.4681,0.0392,0.709
2.737000,0.4010,-0.3785,0.0105,0.551
2.738000,0.2190,-0.4164,-0.0928,0.480
2.741000,0.1385,-0.4862,-0.0424,0.507
2.746000,0.2193,-0.6713,-0.0136,0.706
2.750000,0.3224,-0.9095,-0.0197,0.965
2.756000,0.4405,-1.1001,0.0908,1.189
2.761000,0.4727,-1.2255,0.1992,1.329
2.767000,0.4372,-1.3262,0.2179,1.413
2.771000,0.4679,-1.3939,0.3117,1.503
2.776000,0.4600,-1.3151,0.3498,1.436
2.780000,0.3315,-1.1737,0.2598,1.247
2.785000,0.1518,-1.0343,0.1748,1.060
2.791000,0.0304,-0.8350,0.1527,0.849
2.796000,-0.0214,-0.6581,0.1674,0.679
2.801000,-0.0254,-0.5146,0.1976,0.552
2.806000,-0.0287,-0.3842,0.0946,0.397
2.811000,-0.1974,-0.1653,-0.0493,0.262
2.831000,-0.4005,0.0522,-0.0757,0.411
2.833000,-0.4374,0.1068,-0.1716,0.482
2.833000,-0.3963,0.1862,-0.1932,0.479
2.834000,-0.3489,0.1923,-0.1763,0.436
2.837000,-0.3028,0.1956,-0.1928,0.409
2.841000,-0.3036,0.2247,-0.1947,0.425
2.847000,-0.3027,0.2413,-0.1407,0.412
2.866000,-0.1689,0.2156,-0.0986,0.291
2.867000,0.0336,0.1931,-0.0884,0.215
2.868000,0.0344,0.2059,-0.1518,0.258
2.869000,-0.0013,0.1978,-0.2898,0.351
2.872000,0.1143,0.1522,-0.3905,0.434
2.878000,0.1993,0.1636,-0.2906,0.389
2.885000,0.3245,0.1935,-0.1396,0.403
2.888000,0.3391,0.1990,-0.2172,0.449
2.894000,0.2305,0.2614,-0.6031,0.697
2.897000,0.0193,0.3506,-0.9514,1.014
2.904000,0.0389,0.3901,-0.8477,0.934
2.907000,0.1541,0.4062,-0.5269,0.683
2.912000,0.1700,0.3872,-0.4451,0.614
2.929000,0.1082,0.3332,-0.4929,0.605
2.930000,0.0579,0.2382,-0.4447,0.508
2.931000,-0.1055,0.2206,-0.3340,0.414
2.955000,-0.1672,0.1753,-0.3816,0.452
2.956000,-0.3152,-0.0195,-0.4970,0.589
2.956000,-0.4686,-0.1160,-0.4697,0.674
2.957000,-0.5618,-0.2172,-0.3334,0.688
2.957000,-0.4928,-0.3265,-0.2887,0.658
2.958000,-0.4561,-0.4322,-0.3030,0.698
2.963000,-0.4515,-0.4049,-0.2254,0.647
2.969000,-0.3879,-0.2772,-0.1541,0.501
2.973000,-0.3374,-0.0240,-0.1282,0.362
2.978000,-0.3876,0.2456,0.0581,0.463
2.984000,-0.3609,0.4541,0.3526,0.679
2.989000,-0.2738,0.6172,0.5022,0.841
2.994000,-0.2435,0.7419,0.3670,0.863
2.999000,-0.2995,0.8618,0.1846,0.931
3.004000,0.3784,1.1417,0.1568,1.213
3.009000,1.4866,1.7594,0.7350,2.418
3.014000,1.5699,2.3091,1.1040,3.003
3.019000,1.0993,2.6068,0.7713,2.932
3.024000,0.6583,2.7624,0.3820,2.865
3.029000,0.2600,2.7569,0.3602,2.792
3.046000,0.0209,2.6252,0.3669,2.651
3.048000,-0.1345,2.5398,0.3002,2.561
3.049000,-0.2476,2.1743,0.1669,2.195
3.051000,0.0653,1.6140,0.0346,1.616
3.077000,0.3067,1.2487,0.0057,1.286
3.078000,0.6728,0.8846,0.1455,1.121
3.079000,0.9602,0.5969,0.3291,1.177
3.080000,1.0054,0.4359,0.3324,1.145
3.081000,0.8540,0.3837,0.1573,0.949
3.081000,0.6292,0.2659,0.0805,0.688
3.091000,0.5714,0.1016,-0.0056,0.580
3.092000,0.5065,-0.1689,0.0054,0.534
3.096000,0.4259,-0.4772,0.1432,0.655
3.104000,0.2751,-0.7095,0.2623,0.805
3.105000,0.2712,-0.8122,0.1731,0.874
3.110000,0.3143,-0.8848,-0.0743,0.942
3.115000,0.1178,-0.9443,-0.1000,0.957
3.120000,-0.1106,-0.9141,-0.1021,0.926
3.125000,-0.3673,-0.8900,-0.2203,0.988
3.131000,-0.4257,-0.8884,-0.2328,1.012
3.136000,-0.3759,-1.1284,-0.3734,1.247
3.140000,-0.1612,-1.2950,-0.2950,1.338
3.146000,0.0358,-1.1518,0.0087,1.152
3.163000,0.1971,-0.8495,-0.0172,0.872
3.165000,0.1083,-0.2534,-0.0895,0.290
3.165000,-0.2360,0.5095,-0.0237,0.562
3.197000,-0.6556,1.1892,0.1078,1.362
3.198000,-0.7960,1.7476,0.1043,1.923
3.199000,-0.7296,2.1765,0.1810,2.303
3.201000,-0.3802,2.4114,0.3322,2.464
3.202000,-0.2292,2.5623,0.6007,2.642
3.204000,-0.2672,2.8435,0.4951,2.899
3.204000,-0.3555,3.0552,-0.1483,3.079
3.205000,-0.4413,3.0728,-0.6289,3.167
3.207000,-0.4961,2.8954,-0.6103,3.000
3.211000,-0.1428,2.4278,-0.5256,2.488
3.216000,0.2130,1.8125,-0.1616,1.832
3.221000,0.4877,1.3079,-0.0107,1.396
3.227000,0.5516,0.9690,-0.2360,1.140
3.232000,0.5919,0.5481,-0.3798,0.892
3.237000,0.5051,0.2496,-0.2147,0.603
3.242000,0.2461,0.1858,-0.3400,0.459
3.247000,-0.0102,0.2106,-0.5869,0.624
3.265000,-0.0385,0.0059,-0.4152,0.417
3.266000,0.1096,-0.1818,-0.3355,0.397
3.267000,0.2731,-0.4037,-0.3795,0.618
3.267000,0.2082,-0.5690,-0.3923,0.722
3.295000,0.2758,-0.7135,-0.2161,0.795
3.296000,0.4031,-0.9448,0.0061,1.027
3.296000,0.4129,-1.1074,-0.1009,1.186
3.297000,0.3858,-1.0806,-0.1865,1.162
3.298000,0.2412,-0.8588,-0.1038,0.898
3.299000,0.2288,-0.6237,-0.1539,0.682
3.308000,0.3020,-0.7891,0.0499,0.846
3.309000,0.3406,-0.9192,0.1299,0.989
3.312000,0.3680,-0.8144,-0.0096,0.894
3.320000,0.2417,-0.9450,-0.0017,0.975
3.323000,0.0635,-1.0896,-0.0583,1.093
3.328000,0.0426,-1.0639,-0.3668,1.126
3.333000,-0.1659,-1.1889,-0.5823,1.334
3.338000,-0.5315,-1.3686,-0.9103,1.727
3.343000,-1.0259,-1.3338,-1.0943,2.007
3.348000,-0.9435,-1.7401,-1.1853,2.307
3.353000,-0.3515,-2.6633,-1.4030,3.031
3.358000,-0.0680,-3.7563,-1.5407,4.061
3.363000,0.0331,-4.2095,-1.4877,4.465
3.385000,-0.0930,-3.7251,-1.0673,3.876
3.388000,-0.6539,-2.4945,-0.5305,2.633
3.389000,-1.1108,-1.0470,-0.1450,1.533
3.390000,-1.2782,0.9605,0.1580,1.607
3.392000,-1.3735,3.0244,0.6345,3.382
3.395000,-1.2560,4.8028,1.1887,5.105
3.398000,-1.1214,5.8778,1.6145,6.198
3.437000,-0.9505,5.9876,1.7165,6.301
3.439000,-0.6974,5.2648,1.4937,5.517
3.440000,-0.4571,4.4742,1.0193,4.612
3.441000,-0.1517,3.4782,0.3279,3.497
3.442000,0.2859,2.3481,-0.3345,2.389
3.443000,0.5693,1.3634,-1.0384,1.806
3.444000,0.7621,0.5234,-1.4850,1.749
3.445000,0.8814,0.0645,-1.6542,1.876
3.445000,0.9543,-0.3406,-1.6145,1.906
3.449000,1.0397,-0.7063,-1.5770,2.017
3.454000,0.9639,-0.7710,-1.5046,1.946
3.459000,0.8121,-0.8326,-1.3490,1.781
3.464000,0.6679,-0.7954,-0.9101,1.381
3.480000,0.3900,-0.5991,-0.3198,0.783
3.481000,0.0843,-0.4288,0.1377,0.458
3.482000,-0.1577,-0.3796,0.4961,0.644
3.510000,-0.2550,-0.3254,0.7498,0.856
3.511000,-0.3256,-0.3066,0.7244,0.851
3.512000,-0.2836,-0.3793,0.6209,0.781
3.513000,-0.2020,-0.4463,0.5221,0.716
3.514000,-0.1458,-0.4025,0.3808,0.573
3.514000,-0.0493,-0.3124,0.2628,0.411
3.515000,0.0206,-0.2406,0.1339,0.276
3.525000,0.1112,-0.1643,0.0275,0.200
3.526000,0.1584,-0.0968,0.1097,0.216
3.530000,0.2718,0.0277,0.2885,0.397
3.539000,0.3421,0.1873,0.4614,0.604
3.540000,0.3711,0.2530,0.6701,0.807
3.545000,0.4058,0.3201,0.8178,0.967
3.550000,0.3838,0.3791,0.7802,0.949
3.555000,0.3588,0.3486,0.7282,0.884
3.560000,0.3348,0.2417,0.4837,0.636
3.565000,0.2447,0.1385,0.2476,0.375
3.570000,0.2070,0.0186,-0.0128,0.208
3.576000,0.1460,-0.1361,-0.2878,0.350
3.581000,0.0631,-0.1978,-0.4624,0.507
3.600000,0.0227,-0.1581,-0.5325,0.556
3.601000,-0.0343,-0.1703,-0.5318,0.559
3.602000,-0.0758,-0.1243,-0.4912,0.512
3.603000,-0.1345,-0.0928,-0.4105,0.442
3.606000,-0.1088,-0.0437,-0.2878,0.311
3.611000,-0.0561,0.0185,-0.1885,0.198
3.615000,-0.0372,0.0291,-0.0426,0.064
3.638000,-0.0377,0.0588,0.1839,0.197
3.639000,-0.0145,0.1364,0.3003,0.330
3.639000,-0.0145,0.2224,0.4545,0.506
3.640000,-0.0303,0.2690,0.5414,0.605
3.641000,0.0013,0.2440,0.5903,0.639
3.646000,0.0409,0.2372,0.6289,0.673
3.653000,0.0338,0.2282,0.5758,0.620
3.656000,0.0505,0.2097,0.5577,0.598
3.662000,0.0695,0.2226,0.5078,0.559
3.666000,0.0526,0.1734,0.4136,0.452
3.671000,0.0811,0.1004,0.3083,0.334
3.677000,0.1001,0.0956,0.2335,0.271
3.682000,0.1433,0.0921,0.1101,0.203
3.687000,0.1951,0.0228,0.0433,0.201
3.691000,0.2172,-0.0094,-0.0187,0.218
3.697000,0.2667,0.0505,-0.0907,0.286
3.716000,0.2922,0.0026,-0.1466,0.327
3.717000,0.2904,-0.0250,-0.1209,0.316
3.718000,0.3257,-0.0968,-0.1653,0.378
3.719000,0.3013,-0.1531,-0.1828,0.384
3.754000,0.2795,-0.2214,-0.1771,0.398
3.756000,0.2832,-0.1772,-0.1383,0.362
3.756000,0.2808,-0.2025,-0.1036,0.361
3.757000,0.3037,-0.1775,-0.0452,0.355
3.757000,0.3016,-0.2292,0.0261,0.380
3.758000,0.2903,-0.2102,0.0782,0.367
3.759000,0.2743,-0.1567,0.1505,0.350
3.759000,0.2453,-0.1641,0.1343,0.324
3.763000,0.1890,-0.2147,0.1637,0.330
3.768000,0.1256,-0.2197,0.1582,0.298
3.772000,0.0851,-0.2534,0.1406,0.302
3.778000,0.0243,-0.2978,0.1623,0.340
3.783000,-0.0546,-0.3446,0.1839,0.394
3.788000,-0.0809,-0.3351,0.2363,0.418
3.793000,-0.1004,-0.2885,0.2179,0.375
3.798000,-0.1594,-0.2671,0.1969,0.368
3.814000,-0.1900,-0.2265,0.2152,0.366
3.815000,-0.2296,-0.1775,0.1531,0.328
3.816000,-0.2062,-0.1609,0.0979,0.279
3.842000,-0.1691,-0.0844,0.1456,0.239
3.843000,-0.1328,-0.0186,0.1681,0.215
3.844000,-0.1184,0.0459,0.1798,0.220
3.844000,-0.0793,0.0997,0.2120,0.247
3.845000,-0.0007,0.1403,0.1863,0.233
3.845000,-0.0089,0.2166,0.1946,0.291
3.849000,0.0041,0.3012,0.1735,0.348
3.854000,0.0385,0.3485,0.1673,0.389
3.858000,0.0341,0.3515,0.1986,0.405
3.864000,0.0290,0.3664,0.2100,0.423
3.869000,0.0160,0.4099,0.2232,0.467
3.873000,0.0102,0.3685,0.2153,0.427
3.879000,0.0224,0.3332,0.1512,0.367
3.885000,0.0645,0.2345,0.0418,0.247
3.889000,0.0839,0.1491,-0.0688,0.184
3.894000,0.0067,0.1331,-0.0782,0.155
3.899000,-0.0239,0.1327,-0.0458,0.142
3.904000,-0.0092,0.1275,-0.0425,0.135
3.909000,-0.0556,0.1486,-0.0631,0.171
3.914000,-0.0984,0.1135,-0.0564,0.160
3.933000,-0.1472,0.1131,-0.0294,0.188
3.934000,-0.1926,0.0876,0.0036,0.212
3.935000,-0.1805,0.0586,0.0197,0.191
3.936000,-0.1766,0.0787,0.0265,0.195
3.970000,-0.1810,0.1226,0.1037,0.242
3.971000,-0.2112,0.1198,0.1058,0.265
3.972000,-0.1647,0.1433,0.1047,0.242
3.973000,-0.0904,0.1476,0.0608,0.183
3.973000,-0.0108,0.1398,0.0519,0.150
3.974000,0.0597,0.1225,0.1043,0.172
3.974000,0.0771,0.1625,0.0816,0.198
3.975000,0.0869,0.1486,0.0783,0.189
3.980000,0.1078,0.1323,0.1183,0.208
3.987000,0.0571,0.1924,0.1367,0.243
3.990000,0.0755,0.0948,0.1086,0.163
3.995000,0.1461,-0.0338,0.0387,0.155
4.000000,0.1866,-0.0809,-0.0314,0.206
4.005000,0.2223,-0.1149,-0.0169,0.251
4.011000,0.2304,-0.1739,-0.0686,0.297
4.016000,0.2432,-0.2424,-0.1064,0.359
4.031000,0.2619,-0.2833,-0.1373,0.409
4.033000,0.2576,-0.3289,-0.1172,0.434
4.034000,0.2055,-0.3470,-0.1011,0.416
4.064000,0.2181,-0.4296,-0.0853,0.489
4.066000,0.2116,-0.4345,0.0809,0.490
4.066000,0.1046,-0.3245,0.0246,0.342
4.066000,0.0880,-0.3402,0.0066,0.351
4.067000,0.0697,-0.3521,-0.0029,0.359
4.068000,0.0680,-0.3544,0.0310,0.362
4.068000,0.0520,-0.2922,0.0030,0.297
4.076000,0.0194,-0.2742,0.0521,0.280
4.077000,-0.0107,-0.2479,0.1040,0.269
4.081000,-0.0267,-0.1714,0.0883,0.195
4.089000,-0.0367,-0.1344,0.0321,0.143
4.091000,-0.0670,-0.0699,0.0220,0.099
4.096000,-0.0637,-0.0342,0.0287,0.078
4.103000,-0.0367,-0.0165,0.0163,0.043
4.106000,-0.0373,-0.0012,0.0035,0.037
4.111000,-0.0963,-0.0229,-0.0022,0.099
4.116000,-0.0417,-0.0531,0.0397,0.078
4.121000,-0.0363,-0.0389,0.0995,0.113
4.127000,0.0194,-0.0893,0.1713,0.194
4.132000,0.0347,-0.0871,0.2286,0.247
4.149000,0.0284,-0.0801,0.2850,0.297
4.151000,-0.0040,-0.0133,0.3152,0.315
4.152000,-0.0726,-0.0255,0.3506,0.359
4.154000,-0.0293,-0.1320,0.3039,0.333
4.160000,0.0354,-0.1415,0.2670,0.304
4.162000,0.0282,-0.0924,0.1828,0.207
4.167000,0.0377,-0.0625,0.2030,0.216
4.188000,0.0697,-0.0624,0.2858,0.301
4.189000,0.0141,-0.0337,0.2386,0.241
4.190000,-0.0269,-0.0037,0.1879,0.190
4.190000,-0.0572,0.0310,0.1769,0.189
4.192000,-0.0386,0.0429,0.1409,0.152
4.198000,-0.0667,0.0106,0.1479,0.163
4.203000,-0.0527,0.0225,0.1918,0.200
4.208000,-0.0193,0.0260,0.1627,0.166
4.213000,-0.0324,0.0020,0.1119,0.117
4.218000,-0.0825,0.0068,0.0418,0.093
4.223000,-0.0849,-0.0160,-0.0439,0.097
4.228000,-0.1135,-0.0352,-0.0294,0.122
4.232000,-0.1279,-0.0221,-0.0760,0.150
4.239000,-0.0912,0.0054,-0.0677,0.114
4.243000,-0.0940,-0.0030,-0.0572,0.110
4.248000,-0.1079,0.0090,-0.0480,0.118
4.267000,-0.1004,-0.0209,-0.0687,0.123
4.269000,-0.1074,-0.0519,-0.0582,0.133
4.270000,-0.1114,-0.0966,-0.0653,0.161
4.270000,-0.1011,-0.1326,-0.1163,0.203
4.273000,-0.0697,-0.1433,-0.1290,0.205
4.279000,-0.0552,-0.1516,-0.1382,0.212
4.283000,-0.0455,-0.1088,-0.1154,0.165
4.306000,-0.0146,-0.1316,-0.0703,0.150
4.307000,-0.0318,-0.1245,-0.1133,0.171
4.307000,-0.0285,-0.0950,-0.0753,0.125
4.308000,-0.0181,-0.0645,-0.0174,0.069
4.309000,-0.0277,0.0014,-0.0513,0.058
4.314000,-0.0797,-0.0058,-0.0337,0.087
4.321000,-0.1026,0.0429,0.0017,0.111
4.324000,-0.1322,0.0698,-0.0046,0.150
4.329000,-0.1685,0.1059,0.0188,0.200
4.334000,-0.2020,0.0847,-0.0007,0.219
4.340000,-0.1864,0.1183,0.0786,0.234
4.344000,-0.1778,0.1410,0.0633,0.236
4.349000,-0.2036,0.1242,0.0529,0.244
4.365000,-0.2231,0.1598,0.0651,0.282
4.366000,-0.2125,0.1547,0.1199,0.289
4.367000,-0.1889,0.1330,0.1104,0.256
4.392000,-0.2020,0.0960,0.1378,0.263
4.393000,-0.2101,0.0629,0.1365,0.258
4.394000,-0.1525,0.0383,0.1199,0.198
4.394000,-0.1321,0.0068,0.1510,0.201
4.395000,-0.1141,-0.0090,0.0822,0.141
4.396000,-0.0938,-0.0330,0.0971,0.139
4.400000,-0.0841,-0.0449,0.0528,0.109
4.405000,-0.0423,-0.0960,0.0483,0.115
4.410000,-0.0327,-0.1169,0.0571,0.134
4.415000,-0.0171,-0.1318,0.0792,0.155
4.421000,0.0055,-0.1240,0.1121,0.167
4.425000,0.0113,-0.0758,0.1014,0.127
4.430000,0.0111,-0.0578,0.0839,0.102
4.435000,0.0299,-0.0600,0.0455,0.081
4.440000,0.0485,-0.0670,0.0599,0.102
4.445000,0.0553,-0.1048,0.0613,0.133
4.450000,0.0476,-0.1127,0.0958,0.155
4.456000,0.0448,-0.0955,0.0981,0.144
4.461000,0.0444,-0.0962,0.1240,0.163
4.466000,0.0498,-0.1124,0.1723,0.212
4.485000,0.0292,-0.1000,0.1263,0.164
4.487000,0.0337,-0.1245,0.1554,0.202
4.487000,0.0406,-0.0799,0.1654,0.188
4.488000,0.0143,-0.0571,0.1908,0.200
4.491000,0.0037,-0.0451,0.2033,0.208
4.496000,-0.0139,-0.0095,0.1911,0.192
4.501000,0.0019,-0.0146,0.2244,0.225
4.519000,0.0033,-0.0101,0.2044,0.205
4.520000,-0.0179,0.0015,0.1851,0.186
4.521000,-0.0330,0.0463,0.1650,0.175
4.522000,-0.0254,0.0526,0.1573,0.168
4.527000,-0.0239,0.0341,0.1131,0.121
4.531000,-0.0260,0.0607,0.0863,0.109
4.538000,-0.0197,0.1098,0.0990,0.149
4.541000,0.0147,0.1525,0.0666,0.167
4.547000,0.0262,0.1688,0.0393,0.175
4.552000,0.0292,0.1362,0.0184,0.141
4.557000,0.0487,0.1004,0.0094,0.112
4.562000,0.0702,0.0756,0.0348,0.109
4.567000,0.1059,-0.0036,0.0601,0.122
4.584000,0.0745,0.0022,0.0516,0.091
4.586000,0.0573,0.0495,0.0395,0.085
4.586000,0.0970,-0.0211,0.0346,0.105
4.617000,0.0912,-0.0982,-0.0237,0.136
4.618000,0.1341,-0.0881,0.0037,0.161
4.619000,0.1732,-0.0863,-0.0231,0.195
4.620000,0.1704,-0.1036,-0.0750,0.213
4.620000,0.1381,-0.0874,-0.0257,0.165
4.621000,0.0919,-0.0715,-0.0268,0.119
4.622000,0.0198,-0.0544,-0.0375,0.069
4.623000,0.0359,-0.0256,-0.0409,0.060
4.628000,0.0007,-0.0137,-0.0539,0.056
4.633000,0.0120,-0.0149,-0.0287,0.035
4.638000,-0.0053,0.0029,-0.0335,0.034
4.644000,-0.0083,0.0443,-0.0690,0.082
4.649000,0.0185,0.0082,-0.0792,0.082
4.655000,0.0390,0.0710,-0.0810,0.115
4.659000,0.0438,0.0929,-0.0791,0.130
4.663000,0.0522,0.0920,-0.1116,0.154
4.669000,0.0557,0.0603,-0.1262,0.151
4.675000,0.0379,0.0573,-0.1287,0.146
4.679000,0.0605,0.0769,-0.1267,0.160
4.684000,0.0592,0.0275,-0.1295,0.145
4.702000,0.0532,0.0213,-0.1275,0.140
4.703000,0.0649,0.0495,-0.1066,0.134
4.704000,0.0777,0.0098,-0.1393,0.160
4.704000,0.0619,-0.0069,-0.0757,0.098
4.709000,0.0543,0.0133,-0.0768,0.095
4.713000,0.0526,-0.0261,-0.0508,0.078
4.719000,0.0725,-0.0615,-0.0822,0.126
4.736000,0.0694,-0.0777,-0.0801,0.131
4.739000,0.0723,-0.0925,-0.0331,0.122
4.740000,0.0644,-0.0800,-0.0734,0.126
4.741000,0.0625,-0.0699,-0.0307,0.099
4.745000,0.0522,-0.1121,-0.0287,0.127
4.750000,0.0311,-0.0969,-0.0556,0.116
4.755000,0.0446,-0.0831,-0.0682,0.116
4.760000,0.0424,-0.0587,-0.0857,0.112
4.765000,0.0247,-0.0642,-0.0555,0.088
4.770000,-0.0048,-0.0542,-0.0173,0.057
4.775000,0.0027,-0.0418,-0.0469,0.063
4.780000,-0.0041,-0.0332,-0.0369,0.050
4.785000,-0.0228,-0.0507,-0.0186,0.059
4.789000,-0.0342,-0.0408,-0.0538,0.076
4.795000,-0.0230,-0.0202,-0.0494,0.058
4.800000,0.0082,-0.0295,-0.1006,0.105
4.819000,-0.0179,-0.0090,-0.1361,0.138
4.820000,-0.0022,-0.0315,-0.1285,0.132
4.821000,0.0074,-0.0442,-0.0712,0.084
4.821000,0.0195,-0.0557,-0.0431,0.073
4.825000,0.0742,-0.1027,0.0454,0.135
4.830000,0.0977,-0.0995,0.1558,0.209
4.835000,0.1211,-0.1366,0.1837,0.259
4.853000,0.1110,-0.1711,0.1747,0.269
4.854000,0.0784,-0.1768,0.1258,0.231
4.854000,0.0507,-0.1515,0.0489,0.167
4.856000,0.0562,-0.1549,-0.0274,0.167
4.861000,0.1029,-0.1392,-0.0544,0.181
4.866000,0.0911,-0.1356,-0.0825,0.183
4.872000,0.1079,-0.0750,-0.1096,0.171
4.876000,0.0522,-0.0648,-0.0811,0.116
4.880000,0.0385,-0.0618,-0.0294,0.079
4.885000,0.0260,-0.0672,-0.0035,0.072
4.890000,0.0101,-0.0630,0.0692,0.094
4.896000,0.0287,-0.0767,0.0818,0.116
4.901000,0.0376,-0.1116,0.0738,0.139
4.920000,0.0360,-0.0881,0.0658,0.116
4.922000,0.0093,-0.0743,0.0506,0.090
4.924000,0.0089,-0.0749,0.0273,0.080
4.925000,0.0464,-0.0409,0.0198,0.065
4.932000,0.0503,-0.0061,-0.0241,0.056
4.933000,0.0542,0.0296,-0.0224,0.066
4.936000,0.0650,0.0912,-0.0513,0.123
4.955000,0.0662,0.0894,-0.0738,0.133
4.958000,0.0804,0.0994,-0.0866,0.154
4.959000,0.0673,0.1213,-0.0884,0.164
4.960000,0.0935,0.1405,-0.0961,0.194
4.961000,0.0711,0.1157,-0.1216,0.182
4.967000,0.0632,0.1053,-0.1539,0.197
4.979000,0.0340,0.1009,-0.1420,0.178
4.980000,0.0837,0.0693,-0.1053,0.151
4.981000,0.0738,0.0295,-0.1057,0.132
4.994000,0.0901,-0.0242,-0.1172,0.150
4.995000,0.1182,-0.0275,-0.0553,0.133
4.997000,0.0950,-0.0487,-0.0119,0.107
5.002000,0.0600,-0.0649,0.0045,0.089
5.007000,0.0207,-0.0454,0.0444,0.067
5.012000,0.0978,-0.0973,-0.0183,0.139
5.017000,0.1292,-0.1120,-0.0199,0.172
5.034000,0.1047,-0.1289,0.0084,0.166
5.035000,0.0864,-0.0994,-0.0149,0.133
5.035000,0.0944,-0.0974,-0.0294,0.139
5.065000,0.0609,-0.0670,0.0181,0.092
5.067000,0.0136,-0.0427,0.0214,0.050
5.067000,-0.0253,-0.0353,-0.0273,0.051
5.068000,0.0287,-0.0505,-0.0494,0.076
5.069000,0.0157,-0.0180,-0.1081,0.111
5.069000,0.0184,0.0023,-0.1377,0.139
5.070000,0.0150,0.0201,-0.1116,0.114
5.080000,0.0757,0.0187,-0.1093,0.134
5.081000,0.0860,0.0090,-0.1178,0.146
5.083000,0.0761,0.0149,-0.0693,0.104
5.094000,0.0913,0.0123,-0.0900,0.129
5.095000,0.1196,-0.0187,-0.0262,0.124
5.099000,0.1015,-0.0578,-0.0461,0.126
5.104000,0.0777,-0.0206,-0.0352,0.088
5.109000,0.0814,0.0092,-0.0078,0.082
5.114000,0.0840,-0.0052,0.0088,0.085
5.119000,0.0902,-0.0136,-0.0042,0.091
5.136000,0.0881,-0.0457,0.0257,0.103
5.138000,0.0720,-0.0502,0.0269,0.092
5.138000,0.0312,-0.0297,0.0152,0.046
5.139000,0.0430,-0.0450,0.1023,0.120
5.144000,0.0262,-0.0721,0.0840,0.114
5.149000,0.0049,-0.0740,0.0789,0.108
5.176000,0.0195,-0.0498,0.1109,0.123
5.177000,-0.0098,-0.0413,0.1216,0.129
5.177000,0.0263,-0.0791,0.0992,0.130
5.178000,0.0185,-0.0727,0.0178,0.077
5.179000,-0.0116,-0.0557,-0.0499,0.076
5.179000,-0.0049,-0.0400,-0.0724,0.083
5.184000,0.0065,-0.0351,-0.1035,0.109
5.190000,-0.0060,-0.0196,-0.1098,0.112
5.194000,0.0470,-0.0291,-0.0833,0.100
5.200000,0.0412,-0.0291,-0.0288,0.058
5.204000,0.0559,-0.0185,-0.0225,0.063
5.209000,0.0480,0.0171,-0.0019,0.051
5.215000,0.0307,0.0250,0.0141,0.042
5.220000,0.0327,0.0138,0.0064,0.036
5.225000,0.0431,0.0063,-0.0260,0.051
5.230000,0.0238,-0.0131,-0.0105,0.029
5.235000,-0.0001,-0.0322,0.0336,0.047
5.251000,-0.0154,-0.0299,0.0108,0.035
5.252000,-0.0187,-0.0572,-0.0284,0.067
5.253000,-0.0019,-0.0416,0.0146,0.044
5.281000,-0.0185,-0.0416,-0.0095,0.046
5.282000,-0.0326,-0.0640,-0.0157,0.074
5.282000,-0.0362,-0.0875,-0.0088,0.095
5.283000,0.0172,-0.0953,-0.0176,0.098
5.283000,0.0094,-0.1280,0.0104,0.129
5.283000,0.0054,-0.0773,0.0360,0.085
5.285000,0.0061,-0.0567,0.0972,0.113
5.291000,0.0114,-0.0422,0.1023,0.111
5.296000,0.0261,-0.0409,0.0517,0.071
5.301000,0.0406,-0.0645,0.0681,0.102
5.307000,0.0480,-0.0392,0.0263,0.067
5.311000,0.0826,-0.0521,0.0762,0.124
5.316000,0.0849,-0.0744,0.0580,0.127
5.321000,0.0527,-0.0716,0.0480,0.101
5.326000,0.0244,-0.0546,0.0120,0.061
5.331000,0.0569,-0.0247,0.0131,0.063
5.336000,0.0380,-0.0449,0.0059,0.059
5.353000,0.0418,-0.0316,0.0011,0.052
5.354000,0.0408,-0.0221,0.0023,0.046
5.355000,0.0374,-0.0411,0.0391,0.068
5.356000,0.0389,-0.0469,0.0246,0.066
5.387000,0.0178,-0.0324,0.0341,0.050
5.388000,0.0383,-0.0098,0.0141,0.042
5.389000,0.0065,-0.0360,0.0193,0.041
5.389000,0.0271,-0.0454,0.0566,0.077
5.390000,0.0487,-0.0309,0.0594,0.083
5.390000,0.0510,-0.0427,0.0553,0.087
5.391000,0.0511,-0.0520,0.0787,0.107
5.397000,0.0724,-0.0588,0.1010,0.138
5.402000,0.0556,-0.0727,0.0948,0.132
5.407000,0.0542,-0.0591,0.0651,0.103
5.411000,0.0387,-0.0445,0.0188,0.062
5.417000,0.0517,-0.0122,-0.0223,0.058
5.424000,0.0740,-0.0016,-0.0667,0.100
5.427000,0.0381,0.0078,-0.0931,0.101
5.433000,0.0464,0.0088,-0.0731,0.087
5.438000,0.0355,0.0015,-0.0713,0.080
5.443000,0.0080,0.0180,-0.0540,0.057
5.447000,-0.0262,0.0082,-0.0712,0.076
5.453000,-0.0054,0.0068,-0.0574,0.058
5.471000,0.0162,0.0030,-0.0592,0.061
5.472000,-0.0027,0.0029,-0.0728,0.073
5.473000,-0.0238,-0.0008,-0.0506,0.056
5.474000,-0.0424,-0.0116,-0.0715,0.084
5.477000,-0.0455,0.0181,-0.0113,0.050
5.483000,-0.0068,0.0237,0.0272,0.037
5.488000,0.0387,-0.0265,0.1333,0.141
5.508000,0.0222,-0.0608,0.1855,0.196
5.509000,0.0438,-0.0771,0.1890,0.209
5.510000,0.0452,-0.1110,0.1798,0.216
5.511000,0.0096,-0.1363,0.1461,0.200
5.513000,0.0005,-0.1162,0.0189,0.118
5.518000,0.0011,-0.0537,-0.0647,0.084
5.524000,-0.0175,-0.0011,-0.0908,0.093
5.528000,-0.0276,-0.0190,-0.1288,0.133
5.534000,-0.0461,0.0214,-0.1133,0.124
5.540000,-0.0596,0.0567,-0.1030,0.132
5.544000,-0.0314,0.0502,-0.1691,0.179
5.549000,0.0170,0.0021,-0.1674,0.168
5.554000,0.0947,-0.0290,-0.1200,0.156
5.558000,0.0700,-0.0527,-0.0879,0.124
5.564000,0.0705,-0.0632,-0.0435,0.104
5.569000,0.0415,-0.0440,-0.0093,0.061
5.587000,0.0267,-0.0321,0.0269,0.050
5.588000,0.0179,-0.0700,0.0332,0.080
5.589000,0.0126,-0.0436,0.0599,0.075
5.618000,-0.0120,-0.0244,0.0736,0.079
5.619000,0.0095,0.0113,0.0508,0.053
5.620000,0.0403,0.0194,-0.0298,0.054
5.620000,0.0495,0.0547,0.0200,0.076
5.621000,0.0279,0.0648,0.0195,0.073
5.622000,0.0350,0.1152,-0.0024,0.120
5.622000,-0.0123,0.0915,-0.0597,0.110
5.632000,-0.0177,0.1215,-0.0974,0.157
5.634000,-0.0347,0.0847,-0.1111,0.144
5.634000,-0.0502,0.0932,-0.1165,0.157
5.646000,-0.0442,0.0649,-0.1040,0.130
5.647000,-0.0419,0.0488,-0.1474,0.161
5.650000,-0.0252,0.0066,-0.1311,0.134
5.655000,-0.0193,-0.0246,-0.1351,0.139
5.660000,0.0092,-0.0234,-0.0857,0.089
5.665000,0.0280,-0.0424,-0.0048,0.051
5.670000,0.0203,-0.0613,0.0173,0.067
5.693000,0.0175,-0.0396,-0.0047,0.044
5.694000,0.0290,-0.0823,0.0625,0.107
5.695000,0.0084,-0.0735,0.0485,0.088
5.696000,-0.0026,-0.0446,0.0453,0.064
5.698000,0.0091,-0.0837,0.0744,0.112
5.700000,0.0004,-0.0606,0.0618,0.087
5.705000,0.0071,-0.0188,0.0199,0.028
5.739000,-0.0194,-0.0342,-0.0203,0.044
5.740000,-0.0244,-0.0436,-0.0258,0.056
5.740000,-0.0271,-0.0446,-0.0524,0.074
5.741000,-0.0190,-0.0112,-0.0514,0.056
5.741000,0.0082,-0.0244,-0.0923,0.096
5.742000,-0.0127,-0.0291,-0.0867,0.092
5.742000,-0.0060,-0.0124,-0.1052,0.106
5.746000,-0.0040,-0.0054,-0.1392,0.139
5.751000,-0.0140,-0.0091,-0.1210,0.122
5.757000,-0.0251,-0.0092,-0.0843,0.088
5.760000,0.0090,-0.0117,-0.0932,0.094
5.766000,0.0039,-0.0059,-0.0869,0.087
5.772000,-0.0131,-0.0097,-0.0902,0.092
5.776000,-0.0443,-0.0134,-0.0255,0.053
5.781000,-0.0362,0.0007,-0.0135,0.039
5.786000,-0.0163,0.0136,-0.0191,0.029
5.803000,-0.0120,-0.0378,-0.0032,0.040
5.804000,-0.0137,-0.0174,0.0211,0.031
5.805000,-0.0106,-0.0068,0.0286,0.031
5.841000,-0.0230,-0.0307,0.0420,0.057
5.842000,-0.0129,-0.0567,0.0233,0.063
5.843000,-0.0266,-0.0647,0.0402,0.081
5.844000,-0.0319,-0.0584,0.0487,0.082
5.844000,-0.0370,-0.0510,0.0405,0.075
5.845000,-0.0552,-0.0258,0.0597,0.085
5.845000,-0.0341,-0.0068,0.0112,0.037
5.846000,-0.0277,-0.0211,-0.0049,0.035
5.848000,-0.0380,-0.0020,-0.0053,0.038
5.852000,-0.0160,-0.0223,-0.0281,0.039
5.860000,-0.0049,-0.0152,-0.0720,0.074
5.863000,-0.0201,0.0109,-0.0941,0.097
5.868000,-0.0221,0.0155,-0.1028,0.106
5.876000,-0.0219,0.0485,-0.0807,0.097
5.879000,-0.0218,0.0266,-0.1193,0.124
5.883000,-0.0004,0.0394,-0.0992,0.107
5.887000,0.0066,0.0686,-0.1005,0.122
5.893000,-0.0007,0.0478,-0.1063,0.117
5.897000,0.0086,0.0082,-0.1098,0.110
5.903000,0.0190,-0.0015,-0.1075,0.109
5.919000,0.0223,0.0317,-0.0876,0.096
5.920000,0.0328,-0.0079,-0.0326,0.047
5.921000,0.0112,-0.0293,-0.0483,0.058
5.946000,0.0066,-0.0090,-0.0570,0.058
5.946000,0.0079,-0.0197,-0.0349,0.041
5.947000,0.0140,-0.0601,-0.0321,0.070
5.948000,0.0260,-0.0289,0.0205,0.044
5.948000,0.0107,-0.0217,0.0407,0.047
5.949000,0.0227,-0.0051,0.0276,0.036
5.953000,0.0313,-0.0361,0.0419,0.064
5.960000,-0.0006,-0.0264,0.0207,0.034
5.964000,0.0057,-0.0192,-0.0108,0.023
5.969000,0.0108,-0.0525,-0.0038,0.054
5.974000,0.0123,-0.0308,-0.0076,0.034
5.979000,0.0209,-0.0271,-0.0316,0.047
5.984000,0.0116,-0.0366,-0.0317,0.050
5.989000,-0.0107,-0.0352,-0.0651,0.075
5.993000,0.0171,-0.0375,-0.0448,0.061
5.999000,0.0101,-0.0302,-0.0140,0.035
6.004000,0.0044,-0.0289,-0.0844,0.089
6.023000,0.0154,-0.0395,-0.0713,0.083
6.024000,0.0215,-0.0168,-0.0250,0.037
6.025000,0.0334,-0.0286,-0.0443,0.062
6.025000,0.0286,-0.0784,-0.0387,0.092
6.034000,0.0155,-0.0399,-0.0224,0.048
6.034000,0.0323,-0.0207,-0.0088,0.039
6.039000,0.0025,-0.0266,-0.0502,0.057
6.059000,0.0097,-0.0159,-0.0733,0.076
6.060000,0.0216,-0.0325,-0.0333,0.051
6.061000,0.0216,-0.0252,-0.0102,0.035
6.062000,-0.0058,-0.0240,-0.0002,0.025
6.065000,-0.0174,-0.0144,0.0323,0.039
6.070000,-0.0041,-0.0607,0.0410,0.073
6.075000,0.0056,-0.0366,0.0177,0.041
6.080000,-0.0086,-0.0423,0.0412,0.060
6.084000,0.0271,-0.0445,0.0443,0.068
6.091000,0.0282,-0.0632,0.0592,0.091
6.095000,0.0328,-0.0497,-0.0055,0.060
6.100000,0.0397,-0.0423,-0.0021,0.058
6.105000,0.0359,-0.0350,-0.0331,0.060
6.110000,0.0440,-0.0075,-0.0581,0.073
6.115000,0.0507,0.0091,-0.0806,0.096
6.120000,0.0218,0.0006,-0.0923,0.095
6.137000,0.0004,0.0563,-0.0742,0.093
6.138000,-0.0339,0.0236,-0.1204,0.127
6.139000,-0.0453,0.0114,-0.1485,0.156
6.168000,-0.0258,0.0314,-0.1170,0.124
6.169000,-0.0172,0.0096,-0.0897,0.092
6.170000,-0.0158,0.0034,-0.0865,0.088
6.171000,-0.0252,0.0294,-0.1191,0.125
6.172000,-0.0166,0.0504,-0.0564,0.077
6.173000,-0.0129,0.0368,0.0084,0.040
6.173000,0.0089,0.0019,0.1061,0.106
6.182000,0.0282,-0.0090,0.1240,0.127
6.183000,0.0379,-0.0458,0.0865,0.105
6.186000,0.0450,-0.0895,0.1504,0.181
6.194000,0.0189,-0.0627,0.1606,0.173
6.196000,0.0358,-0.0659,0.0711,0.103
6.201000,-0.0034,-0.0299,0.0039,0.030
6.206000,-0.0186,0.0118,-0.0473,0.052
6.211000,-0.0098,-0.0038,-0.0257,0.028
6.217000,-0.0011,0.0020,-0.0576,0.058
6.222000,-0.0294,0.0565,-0.0725,0.097
6.239000,-0.0218,0.0583,-0.1052,0.122
6.241000,0.0036,0.0423,-0.1380,0.144
6.241000,0.0323,-0.0199,-0.1282,0.134
6.243000,0.0350,-0.0235,-0.0906,0.100
6.246000,0.0662,-0.0413,-0.0420,0.089
6.252000,0.0378,-0.0721,-0.0822,0.116
6.278000,0.0264,-0.1014,-0.0571,0.119
6.279000,0.0186,-0.1090,-0.0089,0.111
6.280000,-0.0071,-0.1084,-0.0301,0.113
6.281000,-0.0100,-0.0376,0.0049,0.039
6.281000,-0.0261,-0.0221,0.0113,0.036
6.282000,-0.0339,0.0124,0.0372,0.052
6.287000,-0.0252,0.0264,-0.0210,0.042
6.293000,-0.0168,0.0546,-0.0034,0.057
6.298000,-0.0229,0.0635,-0.0056,0.068
6.302000,-0.0361,0.0772,-0.0399,0.094
6.310000,-0.0827,0.0658,-0.0335,0.111
6.313000,-0.0400,0.0463,-0.0768,0.098
6.318000,0.0476,0.0114,-0.1058,0.117
6.323000,0.0881,-0.0160,-0.0862,0.124
6.328000,0.0990,-0.0207,-0.0825,0.130
6.332000,0.1516,-0.0266,-0.0528,0.163
6.338000,0.1234,-0.0538,-0.0413,0.141
6.355000,0.0587,-0.0630,0.0044,0.086
6.356000,0.0386,-0.0793,0.0355,0.095
6.357000,0.0448,-0.0682,0.0166,0.083
6.383000,0.0332,-0.0714,-0.0282,0.084
6.384000,0.0382,-0.0603,-0.0548,0.090
6.384000,0.0490,-0.0682,-0.0053,0.084
6.385000,0.0431,-0.0583,-0.0023,0.073
6.385000,0.0514,-0.0449,-0.0359,0.077
6.386000,0.0299,-0.0435,0.0222,0.057
6.388000,0.0585,-0.0326,0.0182,0.069
6.397000,0.0608,-0.0266,-0.0070,0.067
6.400000,0.0641,-0.0585,-0.0142,0.088
6.403000,0.0472,-0.0344,-0.0044,0.059
6.409000,0.0483,-0.0379,-0.0102,0.062
6.414000,0.0423,-0.0234,-0.0491,0.069
6.419000,0.0603,-0.0020,-0.1153,0.130
6.423000,0.0198,-0.0010,-0.1573,0.158
6.429000,0.0199,0.0072,-0.1171,0.119
6.434000,0.0308,0.0343,-0.1391,0.147
6.439000,0.0273,-0.0018,-0.1469,0.149
6.454000,0.0120,0.0088,-0.1349,0.136
6.456000,0.0218,0.0299,-0.0947,0.102
6.457000,0.0257,0.0033,-0.0373,0.045
6.459000,0.0307,-0.0218,0.0054,0.038
6.464000,0.0251,0.0268,0.0169,0.040
6.469000,0.0124,-0.0163,0.0060,0.021
6.474000,-0.0003,0.0109,-0.0117,0.016
6.499000,-0.0022,0.0142,0.0303,0.034
6.500000,0.0007,0.0080,0.0221,0.024
6.500000,-0.0024,-0.0100,0.0309,0.033
6.501000,-0.0210,0.0006,0.0372,0.043
6.501000,-0.0002,-0.0352,0.0684,0.077
6.505000,0.0085,0.0005,0.0544,0.055
6.510000,0.0101,0.0027,0.0288,0.031
6.515000,0.0046,-0.0010,0.0616,0.062
6.520000,-0.0209,-0.0166,0.0243,0.036
6.526000,-0.0592,-0.0143,-0.0138,0.062
6.530000,-0.0403,-0.0179,-0.0183,0.048
6.535000,-0.0134,0.0177,-0.0654,0.069
6.540000,-0.0044,-0.0087,-0.0944,0.095
6.545000,-0.0027,-0.0052,-0.1375,0.138
6.550000,0.0086,0.0148,-0.1246,0.126
6.555000,0.0365,-0.0021,-0.1156,0.121
6.572000,0.0035,0.0060,-0.1007,0.101
6.573000,0.0123,0.0058,-0.0704,0.072
6.574000,0.0675,0.0174,-0.0809,0.107
6.605000,0.0617,-0.0138,-0.0666,0.092
6.606000,0.0180,0.0135,-0.0439,0.049
6.607000,0.0351,-0.0308,-0.0393,0.061
6.607000,0.0440,-0.0438,-0.0442,0.076
6.608000,0.0135,-0.0128,-0.0230,0.030
6.608000,0.0427,0.0014,-0.0220,0.048
6.609000,0.0207,-0.0143,-0.0129,0.028
6.611000,-0.0165,0.0046,-0.0264,0.031
6.616000,0.0284,-0.0170,-0.0375,0.050
6.621000,0.0362,0.0067,-0.0295,0.047
6.626000,0.0047,-0.0197,-0.0347,0.040
6.631000,0.0033,-0.0530,-0.0080,0.054
6.636000,-0.0196,-0.0469,-0.0241,0.056
6.643000,-0.0233,-0.0681,0.0075,0.072
6.646000,-0.0020,-0.0713,0.0043,0.071
6.651000,0.0084,-0.0246,-0.0379,0.046
6.656000,-0.0027,-0.0472,-0.0347,0.059
6.661000,-0.0031,-0.0399,-0.0268,0.048
6.666000,0.0118,-0.0469,-0.0487,0.069
6.671000,0.0172,-0.0289,-0.0324,0.047
6.691000,0.0499,-0.0063,-0.0426,0.066
6.692000,0.0348,-0.0147,-0.0098,0.039
6.693000,0.0080,-0.0243,-0.0010,0.026
6.694000,0.0325,-0.0065,-0.0563,0.065
6.697000,0.0377,-0.0150,-0.0328,0.052
6.702000,0.0226,-0.0423,-0.0272,0.055
6.707000,0.0291,-0.0386,-0.0407,0.063
6.721000,0.0473,-0.0219,-0.0079,0.053
6.723000,0.0298,-0.0160,-0.0301,0.045
6.723000,0.0290,-0.0457,-0.0108,0.055
6.737000,0.0424,-0.0135,-0.0048,0.045
6.738000,0.0473,0.0078,0.0036,0.048
6.739000,0.0416,-0.0280,0.0202,0.054
6.751000,-0.0067,0.0100,0.0403,0.042
6.752000,-0.0072,0.0204,0.0068,0.023
6.753000,-0.0089,0.0129,-0.0025,0.016
6.758000,-0.0142,0.0138,0.0075,0.021
6.762000,-0.0159,0.0195,-0.0098,0.027
6.768000,-0.0105,0.0001,0.0135,0.017
6.773000,-0.0076,0.0083,-0.0182,0.021
6.790000,-0.0213,0.0211,-0.0423,0.052
6.791000,-0.0052,0.0006,-0.0757,0.076
6.792000,-0.0096,0.0182,-0.0365,0.042
6.795000,-0.0161,0.0119,-0.1035,0.105
6.798000,-0.0263,-0.0144,-0.0595,0.067
6.803000,-0.0327,-0.0228,-0.0800,0.089
6.808000,-0.0152,-0.0014,-0.0468,0.049
6.824000,-0.0122,-0.0158,-0.0686,0.071
6.825000,-0.0020,-0.0444,-0.0284,0.053
6.826000,0.0059,-0.0383,-0.0122,0.041
6.828000,-0.0054,-0.0191,-0.0021,0.020
6.833000,0.0061,-0.0358,0.0234,0.043
6.837000,0.0234,-0.0618,0.0120,0.067
6.844000,0.0430,-0.0876,0.0303,0.102
6.847000,0.0054,-0.0847,0.0164,0.086
6.853000,0.0489,-0.0605,-0.0008,0.078
6.862000,0.0729,-0.0673,0.0154,0.100
6.865000,0.0396,-0.0420,-0.0327,0.066
6.868000,0.0351,-0.0204,-0.0781,0.088
6.873000,-0.0145,-0.0157,-0.0673,0.071
6.878000,-0.0152,0.0104,-0.1065,0.108
6.883000,0.0032,0.0470,-0.1002,0.111
6.889000,-0.0249,0.0476,-0.0987,0.112
6.904000,-0.0147,0.0221,-0.1031,0.106
6.905000,-0.0213,0.0158,-0.0873,0.091
6.906000,-0.0540,-0.0129,-0.0978,0.112
6.912000,-0.0306,-0.0011,-0.0929,0.098
6.931000,-0.0419,-0.0179,-0.0597,0.075
6.932000,-0.0187,-0.0072,-0.0696,0.072
6.933000,0.0174,-0.0049,-0.0021,0.018
6.933000,0.0224,-0.0276,0.0710,0.079
6.934000,0.0346,-0.0382,0.1452,0.154
6.940000,0.0466,-0.0737,0.1586,0.181
6.944000,0.0668,-0.0661,0.1509,0.178
6.949000,0.0737,-0.1131,0.1210,0.181
6.954000,0.0712,-0.1182,0.1117,0.178
6.960000,0.0567,-0.0782,0.0300,0.101
6.964000,0.0149,-0.0314,-0.0604,0.070
6.970000,0.0161,0.0008,-0.0882,0.090
6.975000,0.0660,-0.0064,-0.1371,0.152
6.980000,0.0596,0.0363,-0.1356,0.153
6.985000,0.0081,0.0537,-0.0951,0.110
6.990000,-0.0061,0.0271,-0.0920,0.096
7.004000,0.0107,0.0042,-0.1405,0.141
7.005000,0.0253,-0.0019,-0.1511,0.153
7.006000,0.0220,-0.0531,-0.1493,0.160
7.032000,0.0201,-0.0600,-0.1364,0.150
7.033000,0.0360,-0.0562,-0.1384,0.154
7.034000,0.0209,-0.0654,-0.0733,0.100
7.034000,0.0011,-0.0710,-0.0541,0.089
7.035000,-0.0152,-0.0481,-0.0435,0.067
7.035000,-0.0409,-0.0443,0.0372,0.071
7.041000,-0.0379,-0.0298,0.0310,0.057
7.045000,-0.0257,-0.0084,0.0680,0.073
7.051000,0.0114,0.0391,0.0329,0.052
7.056000,-0.0101,0.0351,0.0319,0.048
7.061000,-0.0290,0.0620,0.0539,0.087
7.066000,-0.0229,0.0708,-0.0073,0.075
7.071000,-0.0442,0.0405,-0.0050,0.060
7.077000,-0.0415,0.0365,-0.0704,0.089
7.081000,-0.0258,0.0420,-0.0570,0.075
7.086000,-0.0326,0.0499,-0.0520,0.079
7.091000,-0.0228,0.0030,-0.0793,0.083
7.096000,-0.0059,-0.0161,-0.1097,0.111
7.101000,0.0310,-0.0113,-0.0557,0.065
7.106000,0.0498,-0.0351,-0.0236,0.065
7.125000,0.0400,-0.0421,-0.0631,0.086
7.126000,0.0160,-0.0466,-0.0347,0.060
7.127000,0.0302,-0.0392,-0.0196,0.053
7.127000,0.0798,-0.0247,0.0154,0.085
7.131000,0.0400,-0.0365,-0.0188,0.057
7.136000,0.0208,-0.0280,0.0197,0.040
7.141000,0.0349,-0.0351,0.0152,0.052
7.160000,0.0334,-0.0467,-0.0177,0.060
7.161000,-0.0013,-0.0394,0.0258,0.047
7.162000,0.0296,-0.0178,0.0050,0.035
7.163000,0.0341,-0.0510,-0.0144,0.063
7.167000,0.0315,-0.0542,-0.0608,0.087
7.172000,0.0288,-0.0206,-0.0592,0.069
7.178000,0.0357,-0.0146,-0.0578,0.070
7.182000,0.0213,0.0020,-0.0875,0.090
7.187000,0.0532,-0.0005,-0.0849,0.100
7.192000,0.0218,0.0112,-0.1062,0.109
7.197000,0.0253,0.0229,-0.1144,0.119
7.203000,0.0395,0.0285,-0.1179,0.128
7.208000,0.0310,-0.0087,-0.1181,0.122
7.231000,0.0248,-0.0075,-0.0519,0.058
7.232000,0.0165,-0.0563,-0.0458,0.074
7.233000,0.0284,-0.0465,-0.0303,0.062
7.233000,0.0153,-0.0474,0.0350,0.061
7.234000,-0.0179,-0.0377,0.0226,0.047
7.238000,-0.0190,-0.0066,-0.0025,0.020
7.243000,-0.0128,-0.0150,-0.0047,0.020
7.267000,0.0122,-0.0399,0.0087,0.043
7.268000,0.0144,-0.0397,0.0160,0.045
7.269000,0.0190,-0.0371,0.0365,0.055
7.269000,0.0058,-0.0262,0.0806,0.085
7.270000,0.0128,-0.0700,0.0898,0.115
7.273000,0.0281,-0.0446,0.0802,0.096
7.280000,-0.0078,-0.0337,0.0910,0.097
7.283000,-0.0149,-0.0537,0.0140,0.057
7.288000,0.0112,-0.0403,0.0222,0.047
7.294000,0.0301,-0.0234,-0.0328,0.050
7.298000,0.0547,0.0064,-0.0601,0.081
7.303000,0.0329,0.0181,-0.0848,0.093
7.309000,0.0326,0.0166,-0.1084,0.114
7.314000,0.0371,0.0366,-0.0998,0.113
7.319000,0.0082,0.0433,-0.0818,0.093
7.324000,0.0224,0.0464,-0.1010,0.113
7.339000,0.0235,0.0423,-0.0785,0.092
7.340000,0.0198,0.0347,-0.1048,0.112
7.340000,0.0126,0.0260,-0.0668,0.073
7.366000,0.0302,0.0197,-0.0681,0.077
7.367000,0.0299,0.0159,-0.0526,0.063
7.367000,0.0319,0.0002,-0.0443,0.055
7.368000,0.0291,-0.0165,-0.0408,0.053
7.369000,0.0334,-0.0105,-0.0089,0.036
7.369000,0.0448,-0.0485,0.0000,0.066
7.375000,0.0313,-0.0257,0.0373,0.055
7.380000,0.0252,-0.0220,0.0183,0.038
7.385000,0.0085,-0.0338,0.0339,0.049
7.390000,-0.0045,-0.0266,0.0197,0.033
7.395000,0.0029,-0.0158,0.0235,0.028
7.400000,0.0007,-0.0063,-0.0069,0.009
7.405000,-0.0135,-0.0028,-0.0073,0.016
7.411000,-0.0228,-0.0076,-0.0456,0.052
7.415000,-0.0081,0.0089,-0.0431,0.045
7.420000,-0.0103,-0.0115,-0.0740,0.076
7.425000,-0.0054,-0.0234,-0.0630,0.067
7.431000,-0.0267,-0.0446,-0.0332,0.062
7.436000,0.0057,-0.0420,-0.0512,0.067
7.441000,0.0247,-0.0240,-0.0229,0.041
7.459000,0.0246,-0.0429,-0.0291,0.057
7.460000,0.0030,-0.0344,-0.0259,0.043
7.461000,0.0043,-0.0235,-0.0063,0.025
7.463000,0.0246,0.0050,-0.0140,0.029
7.466000,0.0246,-0.0224,-0.0716,0.079
7.470000,0.0139,0.0073,-0.0408,0.044
7.476000,0.0068,-0.0321,-0.0091,0.034
7.494000,0.0377,-0.0201,-0.0488,0.065
7.496000,0.0221,-0.0236,-0.0550,0.064
7.497000,0.0185,-0.0116,-0.0195,0.029
7.497000,0.0115,-0.0236,0.0204,0.033
7.501000,0.0080,-0.0069,-0.0411,0.042
7.506000,0.0236,-0.0378,-0.0331,0.055
7.513000,0.0129,-0.0198,-0.0193,0.031
7.517000,0.0248,0.0194,-0.0306,0.044
7.522000,0.0401,0.0238,-0.0121,0.048
7.530000,0.0161,-0.0073,0.0123,0.022
7.532000,0.0102,-0.0015,-0.0123,0.016
7.537000,0.0032,-0.0016,-0.0236,0.024
7.542000,0.0130,0.0125,-0.0454,0.049
7.547000,0.0204,-0.0115,-0.0064,0.024
7.552000,0.0181,0.0039,-0.0400,0.044
7.557000,0.0135,0.0085,-0.0282,0.032
7.576000,0.0267,0.0225,-0.0342,0.049
7.578000,0.0089,-0.0241,-0.0225,0.034
7.579000,0.0232,-0.0205,-0.0039,0.031
7.580000,0.0019,-0.0276,-0.0424,0.051
7.585000,0.0141,-0.0085,-0.0461,0.049
7.591000,0.0012,-0.0003,-0.0012,0.002
7.592000,0.0062,-0.0134,-0.0184,0.024
7.614000,0.0254,-0.0206,-0.0188,0.038
7.615000,0.0265,0.0103,-0.0334,0.044
7.616000,0.0110,0.0006,-0.0300,0.032
7.617000,0.0218,0.0230,-0.0244,0.040
7.618000,0.0348,0.0156,-0.0056,0.039
7.624000,0.0489,0.0070,0.0022,0.049
7.629000,0.0214,-0.0145,-0.0138,0.029
7.634000,0.0392,0.0139,-0.0355,0.055
7.638000,0.0379,-0.0006,-0.0476,0.061
7.643000,0.0128,-0.0244,-0.0322,0.042
7.648000,-0.0003,-0.0160,-0.0657,0.068
7.653000,0.0142,-0.0125,-0.0468,0.050
7.658000,-0.0037,0.0065,-0.0364,0.037
7.674000,0.0024,-0.0162,-0.0486,0.051
7.675000,0.0073,-0.0091,-0.0429,0.044
7.676000,0.0051,-0.0127,-0.0277,0.031
7.700000,0.0087,-0.0424,-0.0006,0.043
7.701000,0.0089,-0.0375,0.0096,0.040
7.702000,0.0209,-0.0242,0.0293,0.043
7.703000,0.0150,-0.0242,-0.0163,0.033
7.703000,0.0174,-0.0621,-0.0046,0.065
7.704000,0.0329,-0.0391,-0.0014,0.051
7.709000,0.0389,-0.0247,-0.0313,0.056
7.714000,0.0161,-0.0187,-0.0123,0.028
7.719000,0.0007,-0.0008,-0.0493,0.049
7.724000,0.0234,0.0252,-0.0658,0.074
7.729000,0.0270,-0.0025,-0.0657,0.071
7.734000,0.0044,0.0128,-0.0752,0.076
7.739000,-0.0191,0.0221,-0.1177,0.121
7.744000,-0.0128,0.0016,-0.0733,0.074
7.748000,-0.0221,-0.0116,-0.0638,0.068
7.754000,-0.0015,-0.0378,-0.1007,0.108
7.759000,0.0081,-0.0138,-0.0947,0.096
7.774000,0.0213,-0.0305,-0.0486,0.061
7.776000,-0.0192,-0.0220,-0.0135,0.032
7.776000,0.0202,0.0065,-0.0190,0.028
7.781000,0.0142,0.0040,0.0933,0.094
7.784000,0.0321,-0.0235,0.1529,0.158
7.789000,0.0666,-0.0436,0.1590,0.178
7.807000,0.0971,-0.0315,0.1096,0.150
7.807000,0.0526,-0.0836,0.1665,0.194
7.808000,0.0156,-0.0949,0.1185,0.153
7.809000,-0.0165,-0.0467,-0.0146,0.052
7.821000,-0.0257,-0.0298,-0.0553,0.068
7.822000,0.0030,0.0119,-0.0706,0.072
7.825000,0.0124,0.0354,-0.0774,0.086
7.836000,-0.0209,0.0469,-0.1054,0.117
7.836000,-0.0077,0.0144,-0.0858,0.087
7.840000,0.0054,0.0118,-0.0595,0.061
7.847000,0.0387,-0.0134,-0.1074,0.115
7.850000,0.0956,-0.0371,-0.0889,0.136
7.855000,0.0559,-0.0643,-0.1128,0.141
7.860000,0.0594,-0.0437,-0.0823,0.111
7.865000,0.0332,-0.0803,-0.0751,0.115
7.870000,0.0630,-0.1143,-0.0528,0.141
7.876000,0.0331,-0.0707,-0.0309,0.084
7.889000,0.0093,-0.0988,0.0110,0.100
7.890000,-0.0051,-0.0672,0.0480,0.083
7.891000,-0.0359,-0.0229,0.0199,0.047
7.915000,-0.0178,-0.0014,0.0209,0.027
7.916000,-0.0332,0.0400,0.0282,0.059
7.917000,-0.0438,0.0408,0.0384,0.071
7.917000,-0.0114,0.0867,-0.0226,0.090
7.918000,0.0005,0.0858,-0.0519,0.100
7.921000,-0.0231,0.0684,-0.0561,0.091
7.925000,-0.0288,0.0772,-0.0594,0.102
7.931000,-0.0557,0.0515,-0.0639,0.099
7.936000,-0.0434,0.0130,-0.0398,0.060
7.941000,0.0093,-0.0015,-0.0255,0.027
7.947000,0.0308,-0.0075,-0.0600,0.068
7.951000,0.0225,-0.0444,-0.0467,0.068
7.956000,0.0654,-0.0383,-0.0360,0.084
7.963000,0.0817,-0.0488,-0.0195,0.097
7.966000,0.0337,-0.0699,-0.0342,0.085
7.971000,0.0479,-0.0492,-0.0286,0.074
7.977000,0.0537,-0.0252,0.0018,0.059
7.981000,0.0262,-0.0180,0.0059,0.032
7.986000,0.0345,-0.0370,0.0078,0.051
7.992000,0.0095,-0.0273,0.0062,0.030
8.015000,-0.0011,0.0036,-0.0261,0.026
8.016000,0.0097,-0.0060,0.0214,0.024
8.017000,0.0311,-0.0180,-0.0179,0.040
8.018000,0.0369,-0.0001,-0.0319,0.049
8.020000,0.0190,-0.0181,-0.0089,0.028
8.022000,0.0239,-0.0133,-0.0230,0.036
8.028000,0.0382,-0.0109,-0.0451,0.060
8.049000,0.0345,-0.0050,-0.0623,0.071
8.050000,0.0499,0.0020,-0.0771,0.092
8.050000,0.0416,0.0232,-0.0800,0.093
8.051000,0.0012,-0.0009,-0.0924,0.092
8.057000,0.0430,0.0144,-0.0443,0.063
8.058000,0.0394,0.0035,-0.0762,0.086
8.071000,0.0347,0.0152,-0.0258,0.046
8.072000,0.0193,-0.0077,-0.0246,0.032
8.074000,0.0005,-0.0196,-0.0234,0.031
8.079000,0.0080,-0.0160,-0.0078,0.020
8.083000,0.0012,-0.0208,-0.0206,0.029
8.088000,-0.0318,0.0279,-0.0379,0.057
8.093000,0.0184,0.0157,-0.0524,0.058
8.107000,0.0552,-0.0273,-0.0514,0.080
8.108000,0.0275,-0.0663,0.0040,0.072
8.109000,0.0262,-0.0374,-0.0041,0.046
8.132000,0.0224,-0.0681,0.0268,0.077
8.133000,0.0224,-0.0641,0.0242,0.072
8.134000,0.0508,-0.0138,0.0025,0.053
8.134000,0.0365,-0.0126,0.0333,0.051
8.134000,0.0390,-0.0459,0.0330,0.069
8.138000,0.0163,-0.0267,-0.0181,0.036
8.143000,0.0011,-0.0005,-0.0175,0.018
8.148000,0.0146,0.0089,-0.0524,0.055
8.153000,0.0054,0.0467,-0.0537,0.071
8.159000,0.0117,0.0295,-0.0764,0.083
8.164000,0.0406,-0.0006,-0.0930,0.101
8.169000,0.0252,0.0230,-0.0657,0.074
8.174000,-0.0054,0.0346,-0.0730,0.081
8.180000,-0.0085,0.0044,-0.0222,0.024
8.184000,0.0443,-0.0171,-0.0514,0.070
8.189000,0.0350,-0.0302,-0.0330,0.057
8.194000,0.0235,-0.0111,-0.0360,0.044
8.199000,0.0169,-0.0029,-0.0830,0.085
8.204000,0.0056,-0.0007,-0.0797,0.080
8.209000,0.0076,0.0062,-0.0503,0.051
8.227000,0.0049,0.0214,-0.0449,0.050
8.228000,0.0106,0.0103,-0.0787,0.080
8.229000,-0.0264,-0.0066,-0.0660,0.071
8.233000,-0.0395,0.0063,-0.0533,0.067
8.237000,-0.0406,0.0108,-0.0490,0.065
8.240000,-0.0546,0.0141,-0.0234,0.061
8.245000,-0.0377,0.0161,-0.0538,0.068
8.261000,-0.0174,0.0039,-0.0472,0.050
8.262000,-0.0055,-0.0118,-0.0241,0.027
8.263000,-0.0104,-0.0238,-0.0548,0.061
8.265000,-0.0129,-0.0155,-0.0281,0.035
8.270000,-0.0225,-0.0168,0.0064,0.029
8.275000,0.0001,-0.0347,-0.0497,0.061
8.281000,0.0295,-0.0524,0.0076,0.061
8.285000,0.0065,-0.0165,0.0062,0.019
8.290000,-0.0271,-0.0012,-0.0355,0.045
8.295000,-0.0045,-0.0299,-0.0567,0.064
8.300000,-0.0048,-0.0168,-0.0848,0.087
8.305000,-0.0146,-0.0240,-0.0379,0.047
8.310000,0.0078,-0.0085,-0.0329,0.035
8.326000,0.0027,-0.0158,-0.0186,0.025
8.327000,-0.0165,-0.0111,-0.0293,0.035
8.328000,-0.0142,-0.0018,-0.0282,0.032
8.359000,0.0058,-0.0091,-0.0495,0.051
8.360000,-0.0243,-0.0163,-0.0588,0.066
8.361000,0.0148,-0.0199,-0.0312,0.040
8.363000,0.0097,-0.0152,-0.0133,0.022
8.364000,0.0129,-0.0118,-0.0168,0.024
8.365000,-0.0113,-0.0142,-0.0239,0.030
8.366000,0.0087,-0.0001,-0.0441,0.045
8.373000,0.0072,-0.0110,-0.0177,0.022
8.375000,0.0174,-0.0016,0.0015,0.018
8.377000,0.0371,-0.0207,-0.0184,0.046
8.387000,0.0447,-0.0113,-0.0525,0.070
8.388000,0.0463,-0.0042,-0.0317,0.056
8.392000,0.0409,-0.0056,-0.0217,0.047
8.399000,0.0437,-0.0057,-0.0428,0.061
8.402000,0.0216,-0.0272,-0.0793,0.087
8.407000,0.0258,-0.0260,-0.1216,0.127
8.412000,0.0535,0.0156,-0.0756,0.094
8.417000,0.0537,-0.0203,-0.0954,0.111
8.422000,0.0302,-0.0085,-0.0830,0.089
8.427000,0.0446,0.0116,-0.0707,0.084
8.445000,0.0080,0.0007,-0.0632,0.064
8.446000,0.0383,0.0420,-0.0701,0.090
8.447000,0.0267,0.0237,-0.0794,0.087
8.450000,0.0045,0.0304,-0.0447,0.054
8.453000,0.0253,0.0181,-0.0448,0.055
8.457000,0.0031,0.0036,-0.0697,0.070
8.479000,0.0142,-0.0026,-0.0732,0.075
8.480000,0.0086,0.0270,-0.0434,0.052
8.481000,0.0103,0.0135,-0.0092,0.019
8.482000,0.0273,-0.0105,-0.0380,0.048
8.482000,-0.0081,0.0096,-0.0203,0.024
8.488000,-0.0005,0.0046,-0.0144,0.015
8.493000,-0.0096,-0.0146,0.0150,0.023
8.498000,-0.0056,-0.0478,0.0148,0.050
8.503000,0.0256,-0.0143,0.0077,0.030
8.508000,0.0114,0.0023,0.0232,0.026
8.513000,0.0045,-0.0252,0.0065,0.026
8.518000,-0.0226,-0.0156,-0.0360,0.045
8.523000,-0.0104,-0.0346,-0.0246,0.044
8.529000,0.0103,-0.0570,-0.0205,0.061
8.546000,0.0153,-0.0649,0.0050,0.067
8.547000,-0.0130,-0.0598,0.0183,0.064
8.548000,-0.0079,-0.0452,0.0150,0.048
8.551000,0.0031,-0.0722,-0.0025,0.072
8.554000,0.0141,-0.0848,0.0490,0.099
8.558000,0.0558,-0.0581,-0.0293,0.086
8.577000,0.0698,-0.0257,-0.0584,0.095
8.578000,0.0658,0.0053,-0.0659,0.093
8.579000,0.0594,0.0039,-0.1020,0.118
8.580000,0.0720,0.0085,-0.0997,0.123
8.590000,0.0844,-0.0201,-0.0418,0.096
8.592000,0.0706,-0.0367,-0.0366,0.088
8.594000,0.0487,-0.0329,-0.0565,0.082
8.605000,0.0708,-0.0529,-0.0707,0.113
8.606000,0.0632,-0.0479,-0.0982,0.126
8.609000,0.0378,-0.0832,-0.1032,0.138
8.616000,0.0364,-0.0791,-0.0800,0.118
8.619000,0.0683,-0.0810,-0.0642,0.124
8.624000,0.0632,-0.0757,-0.0606,0.116
8.629000,0.0298,-0.0361,0.0026,0.047
8.634000,0.0360,-0.0276,0.0893,0.100
8.640000,0.0541,-0.0157,0.1637,0.173
8.645000,0.0684,-0.0739,0.2013,0.225
8.662000,0.0922,-0.1376,0.2234,0.278
8.663000,0.0694,-0.1484,0.2412,0.292
8.664000,0.0729,-0.1616,0.2342,0.294
8.664000,0.0491,-0.1485,0.0922,0.182
8.691000,0.0172,-0.1059,-0.0569,0.121
8.692000,0.0092,-0.0897,-0.1050,0.138
8.693000,-0.0118,-0.0796,-0.1160,0.141
8.694000,-0.0517,-0.0126,-0.1391,0.149
8.695000,-0.0735,0.0361,-0.0971,0.127
8.695000,-0.0880,0.0297,-0.1153,0.148
8.707000,-0.0418,0.0293,-0.0993,0.112
8.708000,-0.0372,-0.0151,-0.0671,0.078
8.710000,-0.0053,-0.0211,-0.0036,0.022
8.721000,-0.0069,-0.0271,0.0365,0.046
8.722000,0.0189,-0.0104,0.0322,0.039
8.726000,0.0147,-0.0521,0.0899,0.105
8.733000,-0.0002,-0.0566,0.1140,0.127
8.736000,0.0062,-0.0444,0.0907,0.101
8.741000,0.0006,-0.0003,0.0835,0.083
8.746000,0.0174,0.0530,0.0126,0.057
8.751000,0.0162,0.1059,0.0045,0.107
8.756000,-0.0075,0.1061,-0.0198,0.108
8.761000,0.0059,0.1217,-0.0520,0.132
8.784000,-0.0317,0.1419,-0.0994,0.176
8.785000,-0.0191,0.1145,-0.1343,0.178
8.786000,-0.0208,0.0944,-0.1430,0.173
8.787000,-0.0200,0.0946,-0.1731,0.198
8.788000,-0.0299,0.0569,-0.1449,0.159
8.791000,0.0102,0.0075,-0.1443,0.145
8.797000,0.0061,-0.0259,-0.1497,0.152
8.823000,0.0163,-0.0354,-0.1232,0.129
8.824000,0.0251,-0.0804,-0.0461,0.096
8.825000,0.0444,-0.0870,-0.0079,0.098
8.825000,0.0862,-0.1221,-0.0154,0.150
8.826000,0.1099,-0.1319,0.0374,0.176
8.827000,0.0681,-0.1369,0.0565,0.163
8.835000,0.0847,-0.1206,0.0886,0.172
8.836000,0.0490,-0.1174,0.0301,0.131
8.842000,0.0337,-0.1201,0.0244,0.127
8.848000,0.0197,-0.0848,0.0545,0.103
8.852000,0.0497,-0.0819,0.0299,0.100
8.857000,0.0402,-0.0565,0.0163,0.071
8.862000,0.0283,-0.0395,-0.0540,0.073
8.867000,0.0392,-0.0322,-0.0822,0.097
8.872000,0.0346,-0.0214,-0.0816,0.091
8.877000,0.0489,0.0118,-0.0893,0.103
8.893000,0.0205,0.0009,-0.1445,0.146
8.894000,0.0041,0.0150,-0.1127,0.114
8.894000,0.0235,-0.0102,-0.1016,0.105
8.916000,0.0475,-0.0079,-0.1288,0.137
8.917000,0.0355,-0.0068,-0.1381,0.143
8.918000,0.0343,0.0002,-0.0906,0.097
8.918000,0.0391,-0.0094,-0.0388,0.056
8.918000,0.0604,-0.0309,-0.0184,0.070
8.923000,0.0400,-0.0213,0.0304,0.055
8.928000,0.0128,-0.0438,0.0161,0.048
8.932000,-0.0106,-0.0199,0.0306,0.038
8.938000,0.0159,0.0146,0.0382,0.044
8.943000,0.0005,0.0369,0.0412,0.055
8.949000,0.0079,-0.0004,0.0348,0.036
8.953000,-0.0073,-0.0230,0.0238,0.034
8.958000,-0.0378,-0.0052,-0.0226,0.044
8.963000,-0.0348,-0.0017,0.0048,0.035
8.968000,-0.0567,0.0065,0.0023,0.057
8.974000,-0.0427,-0.0068,0.0058,0.044
8.978000,-0.0290,-0.0425,0.0256,0.057
8.994000,-0.0295,-0.0186,-0.0094,0.036
8.995000,-0.0158,0.0111,-0.0382,0.043
8.996000,0.0060,0.0216,-0.0560,0.060
9.023000,0.0408,0.0343,-0.0414,0.067
9.024000,0.0503,0.0054,-0.0483,0.070
9.025000,0.0182,0.0289,-0.0561,0.066
9.025000,0.0363,0.0404,-0.0803,0.097
9.026000,0.0198,0.0233,-0.0935,0.098
9.026000,0.0414,0.0337,-0.1065,0.119
9.029000,0.0307,0.0332,-0.0635,0.078
9.036000,0.0119,0.0530,-0.0766,0.094
9.039000,0.0337,0.0370,-0.0944,0.107
9.044000,0.0328,0.0436,-0.0977,0.112
9.049000,0.0047,0.0301,-0.0702,0.077
9.054000,0.0064,0.0308,-0.0928,0.098
9.059000,-0.0002,0.0150,-0.1117,0.113
9.064000,-0.0304,0.0266,-0.0510,0.065
9.069000,-0.0153,0.0475,-0.0455,0.068
9.074000,-0.0406,-0.0124,-0.0579,0.072
9.079000,-0.0074,0.0113,-0.0441,0.046
9.093000,-0.0623,0.0003,-0.0115,0.063
9.094000,-0.0562,-0.0367,-0.0281,0.073
9.094000,-0.0181,-0.0128,-0.0221,0.031
9.117000,-0.0053,0.0037,0.0065,0.009
9.118000,-0.0187,-0.0357,-0.0126,0.042
9.118000,-0.0118,-0.0522,-0.0339,0.063
9.119000,0.0295,-0.0365,-0.0193,0.051
9.119000,0.0303,-0.0471,-0.0189,0.059
9.125000,-0.0023,-0.0588,-0.0019,0.059
9.130000,0.0129,-0.0383,-0.0064,0.041
9.135000,0.0136,-0.0560,-0.0439,0.072
9.140000,0.0322,-0.0426,-0.0540,0.076
9.145000,0.0294,-0.0294,-0.0773,0.088
9.150000,0.0217,-0.0650,-0.0294,0.075
9.155000,0.0332,-0.0409,-0.0355,0.064
9.160000,0.0361,-0.0539,-0.0595,0.088
9.166000,0.0189,-0.0453,-0.0455,0.067
9.170000,0.0364,-0.0404,-0.0506,0.074
9.176000,0.0240,-0.0427,-0.0332,0.059
9.181000,0.0237,-0.0508,-0.0599,0.082
9.194000,0.0328,-0.0554,-0.0272,0.070
9.195000,0.0144,-0.0326,0.0040,0.036
9.196000,0.0401,-0.0195,-0.0420,0.061
9.224000,0.0146,-0.0468,0.0038,0.049
9.225000,0.0214,-0.0478,-0.0162,0.055
9.226000,0.0363,-0.0405,-0.0195,0.058
9.226000,0.0297,-0.0404,-0.0131,0.052
9.227000,0.0349,-0.0391,-0.0186,0.056
9.227000,0.0234,-0.0128,0.0104,0.029
9.238000,0.0475,-0.0188,-0.0155,0.053
9.238000,0.0465,-0.0366,-0.0104,0.060
9.241000,0.0571,-0.0472,-0.0039,0.074
9.247000,0.0570,-0.0600,-0.0140,0.084
9.252000,0.0676,-0.0561,0.0150,0.089
9.257000,0.0687,-0.0178,-0.0062,0.071
9.262000,0.0851,-0.0380,-0.0023,0.093
9.266000,0.0373,-0.0438,-0.0236,0.062
9.272000,0.0351,-0.0257,-0.0328,0.055
9.277000,0.0293,-0.0269,-0.0112,0.041
9.293000,-0.0002,-0.0185,0.0173,0.025
9.294000,0.0109,0.0194,0.0028,0.022
9.294000,-0.0077,0.0025,0.0241,0.025
9.297000,-0.0286,0.0106,-0.0260,0.040
9.315000,0.0149,0.0163,0.0122,0.025
9.316000,0.0034,0.0124,0.0074,0.015
9.316000,-0.0354,0.0145,0.0337,0.051
9.318000,-0.0158,0.0012,-0.0388,0.042
9.322000,-0.0178,-0.0215,0.0071,0.029
9.327000,-0.0057,-0.0108,0.0849,0.086
9.333000,0.0195,-0.0262,0.0374,0.050
9.338000,0.0539,-0.0427,0.0628,0.093
9.343000,0.0321,-0.0544,0.0240,0.068
9.348000,0.0307,-0.0600,0.0081,0.068
9.353000,0.0579,-0.0311,0.0005,0.066
9.358000,0.0801,-0.0096,-0.0760,0.111
9.363000,0.0452,-0.0144,-0.1045,0.115
9.367000,0.0297,-0.0049,-0.1046,0.109
9.373000,-0.0189,-0.0110,-0.0786,0.082
9.378000,-0.0148,0.0210,-0.0423,0.049
9.384000,-0.0189,0.0408,-0.0477,0.066
9.389000,-0.0301,0.0261,-0.0957,0.104
9.393000,-0.0069,0.0221,-0.1099,0.112
9.399000,-0.0421,0.0076,-0.0347,0.055
9.403000,-0.0035,-0.0093,-0.0455,0.047
9.409000,0.0158,-0.0105,-0.0823,0.084
9.414000,0.0124,-0.0094,-0.0617,0.064
9.432000,0.0271,-0.0154,0.0039,0.031
9.433000,0.0391,-0.0166,0.0739,0.085
9.434000,0.0474,-0.0688,0.1745,0.193
9.434000,0.0782,-0.0482,0.2198,0.238
9.439000,0.0708,-0.0812,0.1856,0.215
9.446000,0.0457,-0.1459,0.1223,0.196
9.464000,0.0183,-0.1460,0.0666,0.162
9.465000,0.0126,-0.1283,0.0503,0.138
9.466000,-0.0050,-0.0384,-0.0981,0.105
9.467000,0.0038,-0.0014,-0.2100,0.210
9.469000,-0.0505,0.0400,-0.2575,0.265
9.474000,-0.1089,0.0704,-0.2538,0.285
9.480000,-0.0933,0.0934,-0.2612,0.293
9.484000,-0.0754,0.0841,-0.1997,0.229
9.490000,-0.0577,0.0108,-0.1626,0.173
9.495000,-0.0092,-0.0345,-0.0821,0.090
9.514000,0.0531,-0.0724,-0.0061,0.090
9.516000,0.0591,-0.0969,0.0394,0.120
9.516000,0.0486,-0.0833,0.0977,0.137
9.517000,0.0783,-0.0519,0.1699,0.194
9.520000,0.0673,-0.0563,0.2088,0.227
9.524000,0.0550,-0.0465,0.2135,0.225
9.530000,0.0557,-0.0059,0.1628,0.172
9.546000,0.0421,0.0285,0.0619,0.080
9.547000,0.0012,0.0614,0.0084,0.062
9.548000,-0.0261,0.1047,0.0041,0.108
9.558000,-0.0129,0.0943,-0.0250,0.098
9.559000,-0.0340,0.0981,-0.0727,0.127
9.560000,-0.0655,0.1008,-0.1331,0.179
9.565000,-0.0778,0.0867,-0.1420,0.184
9.572000,-0.0413,0.0776,-0.1416,0.167
9.576000,-0.0181,0.0637,-0.1616,0.175
9.580000,-0.0151,0.0061,-0.2065,0.207
9.586000,-0.0052,-0.0345,-0.1837,0.187
9.590000,0.0094,-0.0308,-0.1376,0.141
9.596000,0.0263,-0.0283,-0.0909,0.099
9.600000,0.0324,-0.0567,-0.0140,0.067
9.606000,0.0349,-0.0540,0.0170,0.067
9.611000,0.0326,-0.0134,0.0025,0.035
9.617000,-0.0018,-0.0217,0.0274,0.035
9.621000,0.0283,-0.0727,0.0346,0.085
9.626000,0.0022,-0.0378,0.0288,0.048
9.631000,0.0143,-0.0211,0.0032,0.026
9.647000,-0.0022,-0.0139,0.0385,0.041
9.648000,-0.0055,-0.0281,0.0026,0.029
9.649000,-0.0445,-0.0233,0.0050,0.050
9.677000,-0.0155,-0.0078,-0.0495,0.052
9.678000,0.0085,0.0052,-0.0857,0.086
9.679000,0.0145,0.0087,-0.0858,0.087
9.679000,0.0144,0.0096,-0.0932,0.095
9.680000,0.0193,0.0177,-0.1518,0.154
9.681000,0.0323,0.0020,-0.1410,0.145
9.682000,0.0345,0.0257,-0.1506,0.157
9.692000,-0.0228,0.0693,-0.1234,0.143
9.693000,0.0190,0.0163,-0.0858,0.089
9.697000,-0.0227,0.0102,-0.0771,0.081
9.706000,0.0034,0.0278,-0.0721,0.077
9.707000,0.0601,0.0203,-0.0447,0.078
9.712000,0.0190,-0.0084,-0.0248,0.032
9.717000,0.0283,-0.0203,0.0389,0.052
9.722000,0.0470,-0.0321,0.0725,0.092
9.727000,0.0323,-0.0142,0.0801,0.087
9.732000,0.0344,0.0037,0.1140,0.119
9.748000,0.0341,0.0107,0.0636,0.073
9.750000,0.0266,-0.0061,0.0318,0.042
9.751000,-0.0164,-0.0169,0.0528,0.058
9.754000,-0.0067,0.0164,0.0404,0.044
9.757000,-0.0032,-0.0147,0.0376,0.040
9.762000,-0.0115,-0.0158,0.0299,0.036
9.782000,0.0040,0.0115,0.0258,0.029
9.783000,-0.0211,-0.0350,0.0313,0.051
9.784000,-0.0079,-0.0573,0.0318,0.066
9.785000,-0.0066,-0.0225,0.0215,0.032
9.788000,-0.0208,-0.0022,0.0064,0.022
9.793000,-0.0111,-0.0189,-0.0133,0.026
9.798000,0.0198,-0.0224,0.0099,0.032
9.803000,0.0124,-0.0010,0.0152,0.020
9.808000,0.0025,-0.0010,-0.0317,0.032
9.813000,0.0153,0.0108,-0.0377,0.042
9.819000,0.0017,-0.0167,-0.0008,0.017
9.824000,0.0239,-0.0035,-0.0199,0.031
9.829000,0.0163,-0.0320,-0.0281,0.046
9.835000,0.0326,0.0287,-0.0066,0.044
9.838000,0.0000,-0.0072,-0.0412,0.042
9.844000,0.0033,-0.0144,-0.0483,0.050
9.849000,0.0054,0.0023,-0.0174,0.018
9.866000,-0.0078,-0.0203,0.0082,0.023
9.867000,-0.0173,-0.0464,0.0001,0.050
9.868000,-0.0386,0.0038,-0.0056,0.039
9.870000,-0.0466,-0.0142,-0.0079,0.049
9.874000,-0.0488,-0.0082,0.0269,0.056
9.878000,-0.0188,-0.0035,0.0804,0.083
9.900000,-0.0151,0.0024,0.0563,0.058
9.901000,-0.0163,0.0070,0.0873,0.089
9.902000,-0.0294,0.0021,0.0647,0.071
9.903000,-0.0151,0.0175,0.0722,0.076
9.904000,0.0003,-0.0136,0.0596,0.061
9.909000,-0.0071,0.0161,0.0448,0.048
9.914000,-0.0085,0.0278,0.0433,0.052
9.919000,-0.0312,-0.0034,0.0430,0.053
9.924000,-0.0252,0.0180,0.0001,0.031
9.929000,-0.0501,0.0308,0.0087,0.059
9.935000,-0.0094,-0.0040,0.0315,0.033
9.939000,0.0142,-0.0040,-0.0053,0.016
9.944000,0.0234,0.0007,-0.0345,0.042
9.949000,0.0087,-0.0349,-0.0364,0.051
9.954000,-0.0235,-0.0490,0.0234,0.059
9.959000,0.0144,-0.0581,0.0031,0.060
9.964000,-0.0085,-0.0565,-0.0360,0.068
9.981000,0.0139,-0.0620,-0.0001,0.064
9.982000,0.0302,-0.0794,0.0237,0.088
9.983000,0.0201,-0.0942,-0.0240,0.099
10.014000,0.0316,-0.0662,-0.0011,0.073
10.016000,0.0275,-0.0740,0.0144,0.080
10.017000,0.0222,-0.0556,-0.0320,0.068
10.017000,0.0265,-0.0493,-0.0673,0.088
10.018000,0.0319,-0.0276,-0.0110,0.044
10.019000,0.0313,-0.0440,-0.0537,0.076
10.019000,0.0176,-0.0805,-0.0533,0.098
10.022000,0.0111,-0.0585,-0.0802,0.100
10.025000,0.0392,-0.0889,-0.0749,0.123
10.030000,0.0173,-0.0728,-0.0638,0.098
10.035000,-0.0081,-0.0402,-0.0731,0.084
10.040000,0.0106,-0.0352,-0.1204,0.126
10.046000,0.0232,-0.0444,-0.0841,0.098
10.051000,0.0060,-0.0061,-0.0803,0.081
10.056000,-0.0050,0.0117,-0.0824,0.083
10.061000,0.0208,0.0364,-0.1021,0.110
10.066000,0.0083,0.0052,-0.0682,0.069
10.080000,0.0267,0.0206,-0.0189,0.039
10.082000,0.0035,0.0144,-0.0221,0.027
10.082000,-0.0147,-0.0083,0.0022,0.017
10.108000,0.0052,0.0250,0.0051,0.026
10.109000,0.0237,0.0212,-0.0097,0.033
10.111000,0.0015,0.0103,0.0243,0.026
10.111000,0.0164,0.0007,-0.0428,0.046
10.112000,0.0110,0.0352,-0.0534,0.065
10.113000,0.0115,0.0123,-0.0402,0.044
10.116000,0.0261,0.0348,-0.0735,0.085
10.122000,0.0275,0.0488,-0.0805,0.098
10.127000,0.0300,0.0436,-0.0719,0.089
10.132000,0.0137,0.0480,-0.0883,0.101
10.138000,-0.0216,0.0559,-0.0737,0.095
10.142000,0.0217,0.0472,-0.0401,0.066
10.147000,-0.0090,0.0670,-0.0282,0.073
10.151000,-0.0051,0.0653,-0.0292,0.072
10.157000,-0.0072,0.0731,-0.0740,0.104
10.162000,-0.0034,0.0690,-0.0365,0.078
10.168000,-0.0081,0.0661,-0.0230,0.070
10.172000,0.0049,0.0823,0.0656,0.105
10.177000,0.0333,0.0971,0.1359,0.170
10.183000,0.0520,0.0454,0.2061,0.217
10.199000,0.0787,0.0190,0.2431,0.256
10.201000,0.0554,-0.0071,0.2011,0.209
10.201000,0.0535,-0.0306,0.1990,0.208
10.203000,0.0704,-0.0265,0.1547,0.172
10.208000,0.0421,-0.0392,0.0623,0.085
10.212000,0.0342,-0.0077,-0.0223,0.042
10.234000,0.0321,0.0365,-0.0601,0.077
10.235000,-0.0257,0.0388,-0.1120,0.121
10.236000,-0.0428,0.0767,-0.1197,0.148
10.237000,-0.0266,0.0491,-0.0966,0.112
10.238000,-0.0119,0.0133,-0.0881,0.090
10.243000,0.0181,-0.0079,-0.0288,0.035
10.248000,-0.0639,-0.0301,0.0976,0.120
10.253000,-0.0671,-0.0699,0.0874,0.130
10.259000,0.0080,-0.0713,0.1129,0.134
10.264000,0.0446,-0.1048,0.1142,0.161
10.270000,0.0475,-0.1238,0.0964,0.164
10.273000,0.0360,-0.0832,0.1182,0.149
10.278000,0.0648,-0.0679,0.0971,0.135
10.284000,0.0610,-0.0313,0.1155,0.134
10.304000,0.0108,-0.0246,0.1093,0.113
10.306000,0.0188,0.0319,0.0950,0.102
10.306000,-0.0021,0.0642,0.1312,0.146
10.307000,-0.0395,0.1189,0.1320,0.182
10.309000,-0.0624,0.1245,0.1524,0.206
10.317000,-0.1005,0.1941,0.1147,0.247
10.318000,-0.1238,0.2110,0.1172,0.271
10.342000,-0.1371,0.2015,0.0771,0.256
10.343000,-0.1382,0.1910,0.0256,0.237
10.344000,-0.1388,0.1223,-0.0242,0.187
10.344000,-0.0810,0.0636,-0.0488,0.114
10.345000,-0.0589,0.0078,-0.1126,0.127
10.349000,-0.0155,-0.0820,-0.1002,0.130
10.354000,-0.0056,-0.0880,-0.1324,0.159
10.360000,0.0315,-0.1355,-0.1422,0.199
10.364000,0.0682,-0.1612,-0.1145,0.209
10.370000,0.0890,-0.1499,-0.1244,0.214
10.375000,0.1227,-0.1791,-0.0527,0.223
10.380000,0.1131,-0.1546,-0.0162,0.192
10.386000,0.0967,-0.1553,-0.0099,0.183
10.390000,0.0590,-0.1203,0.0389,0.140
10.395000,0.0250,-0.1010,0.0732,0.127
10.400000,-0.0110,-0.0665,0.0303,0.074
10.415000,-0.0433,-0.0417,0.0854,0.104
10.416000,-0.0325,-0.0207,0.0831,0.092
10.417000,-0.0431,-0.0568,0.0822,0.109
10.446000,-0.0488,-0.0642,0.0864,0.118
10.446000,-0.0355,-0.0500,0.0373,0.072
10.447000,-0.0522,0.0055,0.0610,0.080
10.447000,-0.0448,0.0784,0.0644,0.111
10.448000,-0.0110,0.1851,0.0199,0.186
10.448000,-0.0173,0.2101,0.0089,0.211
10.451000,-0.0172,0.2111,0.0452,0.217
10.460000,-0.0107,0.2357,0.0499,0.241
10.461000,-0.0444,0.2340,-0.0017,0.238
10.466000,-0.0608,0.1799,0.0770,0.205
10.472000,-0.1031,0.1192,0.1193,0.198
10.476000,-0.1356,0.0768,0.1351,0.206
10.481000,-0.1741,0.0419,0.1152,0.213
10.486000,-0.1769,0.0477,0.1160,0.217
10.491000,-0.1512,0.0131,0.1016,0.183
10.496000,-0.1318,0.0121,0.1068,0.170
10.501000,-0.0911,0.0432,0.1218,0.158
10.506000,-0.0590,0.0621,0.0883,0.123
10.511000,-0.0521,0.0453,0.1194,0.138
10.516000,-0.0215,0.0702,0.1290,0.148
10.529000,-0.0195,0.1471,0.0912,0.174
10.530000,-0.0601,0.1723,0.0725,0.196
10.533000,-0.0303,0.1748,0.1167,0.212
10.555000,-0.0459,0.1712,0.0620,0.188
10.556000,-0.0472,0.1143,0.0361,0.129
10.557000,-0.0213,0.0532,0.0616,0.084
10.557000,-0.0114,0.0543,0.0517,0.076
10.558000,-0.0244,0.0543,0.0541,0.080
10.562000,-0.0099,0.0199,-0.0107,0.025
10.567000,-0.0264,0.0179,-0.0607,0.069
10.572000,-0.0049,0.0278,-0.0767,0.082
10.577000,0.0042,0.0543,-0.1245,0.136
10.582000,0.0051,0.0698,-0.1682,0.182
10.587000,0.0367,0.0794,-0.2067,0.224
10.592000,0.0999,0.1055,-0.2544,0.293
10.597000,0.1485,0.1171,-0.3529,0.400
10.617000,0.2017,0.1559,-0.3595,0.441
10.618000,0.2251,0.0886,-0.3580,0.432
10.619000,0.2166,0.0377,-0.3951,0.452
10.619000,0.2311,-0.0132,-0.4384,0.496
10.623000,0.2778,-0.0473,-0.3637,0.460
10.627000,0.2244,-0.1042,-0.3433,0.423
10.632000,0.2094,-0.1968,-0.3029,0.418
10.651000,0.2300,-0.2452,-0.3057,0.454
10.652000,0.2672,-0.1954,-0.2825,0.435
10.653000,0.2650,-0.1803,-0.2882,0.431
10.654000,0.2630,-0.1606,-0.2894,0.423
10.658000,0.2065,-0.2043,-0.2597,0.390
10.663000,0.1658,-0.2360,-0.2745,0.398
10.668000,0.1060,-0.2247,-0.3505,0.430
10.674000,0.0641,-0.2983,-0.3786,0.486
10.679000,0.0032,-0.3335,-0.3770,0.503
10.684000,-0.0039,-0.3173,-0.3538,0.475
10.688000,-0.0337,-0.3478,-0.4565,0.575
10.694000,-0.1196,-0.3543,-0.5144,0.636
10.699000,-0.2094,-0.2485,-0.2166,0.391
10.704000,-0.0537,-0.1857,-0.0664,0.204
10.709000,0.0648,-0.1924,-0.0918,0.223
10.714000,0.0904,-0.1823,-0.1370,0.245
10.720000,0.0995,-0.2069,-0.1652,0.283
10.724000,0.0597,-0.2554,-0.1742,0.315
10.729000,0.0709,-0.3253,-0.1327,0.358
10.734000,0.1833,-0.3018,-0.1759,0.394
10.750000,0.2036,-0.2532,-0.2154,0.390
10.751000,0.1637,-0.2287,-0.2202,0.357
10.752000,0.1150,-0.2342,-0.1809,0.318
10.754000,0.0749,-0.2362,-0.1408,0.285
10.780000,0.0600,-0.2644,-0.1560,0.313
10.781000,0.0570,-0.2963,-0.1916,0.357
10.782000,0.0698,-0.3150,-0.1197,0.344
10.783000,0.0502,-0.3731,-0.1710,0.413
10.783000,0.0763,-0.3451,-0.1926,0.402
10.785000,0.0639,-0.3254,-0.1064,0.348
10.795000,0.0573,-0.3309,-0.1184,0.356
10.796000,0.0459,-0.3602,-0.1004,0.377
10.799000,0.0989,-0.3584,-0.0644,0.377
10.809000,0.1160,-0.3339,-0.0330,0.355
10.810000,0.1002,-0.3441,-0.0101,0.359
10.815000,0.1009,-0.3329,-0.0420,0.350
10.821000,0.1002,-0.2778,-0.0584,0.301
10.825000,0.1337,-0.2777,-0.0869,0.320
10.830000,0.0827,-0.2267,-0.1523,0.285
10.835000,0.1175,-0.1821,-0.2060,0.299
10.849000,0.1056,-0.2008,-0.2184,0.315
10.851000,0.0676,-0.1553,-0.2336,0.289
10.851000,0.0261,-0.1327,-0.2551,0.289
10.876000,-0.0439,-0.0901,-0.2401,0.260
10.877000,-0.0282,-0.0740,-0.2220,0.236
10.877000,-0.0368,-0.0699,-0.2089,0.223
10.878000,-0.0455,-0.0634,-0.2080,0.222
10.879000,-0.0270,-0.0760,-0.1217,0.146
10.881000,-0.0123,-0.0908,-0.1238,0.154
10.891000,-0.0178,-0.0829,-0.1068,0.136
10.892000,-0.0220,-0.0905,-0.0993,0.136
10.896000,-0.0381,-0.0648,-0.0964,0.122
10.901000,-0.0005,-0.0642,-0.0421,0.077
10.906000,0.0285,-0.0588,0.0169,0.068
10.911000,0.0264,-0.0226,0.0081,0.036
10.916000,0.0090,0.0050,-0.0156,0.019
10.921000,0.0250,-0.0008,0.0217,0.033
10.927000,0.0289,-0.0255,0.0221,0.044
10.931000,0.0046,-0.0097,-0.0321,0.034
10.951000,-0.0290,0.0344,-0.1300,0.138
10.954000,-0.0280,0.0758,-0.1455,0.166
10.954000,-0.0601,0.1120,-0.1350,0.185
10.955000,-0.0682,0.1456,-0.1367,0.211
10.957000,-0.1132,0.1955,-0.1585,0.276
10.961000,-0.1176,0.1975,-0.1624,0.281
10.966000,-0.0829,0.1556,-0.1261,0.217
10.985000,-0.0591,0.0974,-0.1364,0.178
10.986000,-0.0364,0.0741,-0.0409,0.092
10.987000,-0.0328,0.0249,0.0184,0.045
10.987000,-0.0087,-0.0073,0.0810,0.082
10.992000,0.0093,-0.0310,0.0732,0.080
10.997000,0.0452,-0.0532,0.0514,0.087
11.004000,-0.0035,-0.0943,0.0392,0.102
11.007000,0.0076,-0.1006,0.0235,0.104
11.012000,0.0160,-0.1306,-0.0018,0.132
11.018000,0.0112,-0.1568,-0.0258,0.159
11.022000,0.0394,-0.2017,-0.0402,0.209
11.028000,0.0505,-0.1466,-0.0854,0.177
11.032000,0.0353,-0.1346,-0.0854,0.163
11.038000,0.0282,-0.1048,-0.1293,0.169
11.043000,0.0304,-0.0587,-0.1089,0.127
11.048000,0.0171,-0.0723,-0.0970,0.122
11.052000,0.0050,-0.0253,-0.0853,0.089
11.058000,-0.0341,0.0130,-0.0641,0.074
11.063000,-0.0562,0.0427,-0.0714,0.100
11.068000,-0.0577,0.0413,-0.0263,0.076
11.087000,-0.0709,0.0862,-0.0168,0.113
11.089000,-0.0709,0.0571,0.0037,0.091
11.091000,-0.0470,0.0556,0.0111,0.074
11.092000,-0.0514,0.0268,-0.0050,0.058
11.093000,-0.0069,0.0220,0.0172,0.029
11.098000,-0.0126,0.0326,-0.0141,0.038
11.103000,0.0103,0.0016,-0.0214,0.024
11.121000,0.0176,-0.0601,-0.0311,0.070
11.123000,0.0225,-0.0618,-0.0728,0.098
11.123000,0.0605,-0.0873,-0.0121,0.107
11.124000,0.0530,-0.1043,-0.0577,0.130
11.128000,0.0680,-0.1532,-0.0329,0.171
11.133000,0.0580,-0.1364,-0.0561,0.158
11.145000,0.0314,-0.1043,-0.0899,0.141
11.146000,0.0061,-0.0784,-0.0677,0.104
11.149000,-0.0012,-0.0753,-0.0591,0.096
11.157000,-0.0168,-0.0532,-0.0685,0.088
11.158000,-0.0431,0.0019,-0.0767,0.088
11.164000,-0.0466,-0.0135,-0.1099,0.120
11.169000,-0.0654,0.0104,-0.1063,0.125
11.182000,-0.1161,0.0043,-0.1173,0.165
11.183000,-0.0853,0.0066,-0.1806,0.200
11.184000,-0.0239,-0.0066,-0.1676,0.169
11.207000,-0.0354,-0.0055,-0.1479,0.152
11.208000,-0.0183,0.0146,-0.1391,0.141
11.208000,0.0298,-0.0178,-0.0688,0.077
11.209000,0.0658,-0.0273,-0.0500,0.087
11.209000,0.1053,-0.0166,-0.0263,0.110
11.215000,0.1159,-0.0047,-0.0097,0.116
11.219000,0.1192,-0.0036,-0.0381,0.125
11.224000,0.1558,0.0034,-0.0681,0.170
11.230000,0.2123,0.0033,-0.0548,0.219
11.235000,0.2030,-0.0157,-0.0820,0.219
11.240000,0.2127,-0.0442,-0.1078,0.243
11.245000,0.1857,-0.0866,-0.1074,0.231
11.250000,0.1732,-0.1003,-0.1393,0.244
11.265000,0.1585,-0.0711,-0.1488,0.229
11.266000,0.1390,-0.0885,-0.1597,0.229
11.266000,0.1136,-0.1010,-0.1222,0.195
11.296000,0.1108,-0.1015,-0.1256,0.196
11.297000,0.0736,-0.1128,-0.1174,0.179
11.297000,0.0558,-0.1049,-0.0573,0.132
11.298000,0.0487,-0.0746,-0.0700,0.113
11.299000,0.0452,-0.0540,-0.0327,0.078
11.299000,0.0369,-0.0383,-0.0244,0.059
11.301000,0.0073,0.0021,-0.0338,0.035
11.309000,0.0054,0.0387,0.0034,0.039
11.310000,0.0214,0.0394,-0.0297,0.054
11.316000,0.0682,0.0721,-0.0171,0.101
11.323000,0.0544,0.0832,-0.0128,0.100
11.326000,0.0680,0.0633,-0.0451,0.103
11.331000,0.0437,0.0412,-0.0591,0.084
11.336000,0.0743,0.0370,-0.0873,0.120
11.341000,0.0868,0.0377,-0.1058,0.142
11.346000,0.0564,-0.0032,-0.1160,0.129
11.351000,0.0654,-0.0260,-0.1143,0.134
11.356000,0.0624,-0.0367,-0.1474,0.164
11.361000,0.0690,-0.0473,-0.1768,0.196
11.366000,0.0102,-0.0710,-0.1550,0.171
11.386000,0.0208,-0.0873,-0.0968,0.132
11.387000,0.0075,-0.0809,-0.1032,0.131
11.388000,0.0061,-0.0865,-0.1169,0.146
11.388000,0.0213,-0.1502,-0.0878,0.175
11.392000,0.0543,-0.1314,-0.0293,0.145
11.396000,0.0419,-0.0998,-0.0330,0.113
11.401000,0.0653,-0.1017,-0.0486,0.130
11.420000,0.0910,-0.0537,-0.0284,0.109
11.421000,0.1345,-0.0654,0.0047,0.150
11.422000,0.1480,-0.0641,0.0353,0.165
11.422000,0.1473,-0.0532,-0.0089,0.157
11.427000,0.1812,-0.0449,0.0269,0.189
11.432000,0.2207,-0.0057,0.0719,0.232
11.437000,0.2234,0.0035,0.0574,0.231
11.442000,0.2001,-0.0088,0.0407,0.204
11.448000,0.1889,-0.0317,0.0611,0.201
11.452000,0.1648,-0.0271,0.0066,0.167
11.457000,0.1788,-0.0071,-0.0737,0.193
11.463000,0.2079,-0.0442,-0.0717,0.224
11.467000,0.1714,-0.0443,-0.0940,0.200
11.486000,0.1668,-0.0787,-0.0984,0.209
11.487000,0.1952,-0.1152,-0.0924,0.245
11.488000,0.1745,-0.1633,-0.1711,0.294
11.488000,0.1646,-0.1113,-0.1677,0.260
11.493000,0.1451,-0.0835,-0.1266,0.210
11.497000,0.1342,-0.0571,-0.1490,0.208
11.502000,0.1315,-0.0297,-0.1463,0.199
11.520000,0.1159,-0.0204,-0.1165,0.166
11.521000,0.1026,-0.0277,-0.1033,0.148
11.522000,0.0588,0.0161,-0.1065,0.123
11.522000,0.0415,0.0072,-0.0431,0.060
11.528000,0.0128,0.0376,-0.0311,0.050
11.533000,-0.0428,0.0595,0.0121,0.074
11.539000,-0.0550,0.0609,0.0266,0.086
11.543000,-0.0777,0.0588,0.0708,0.120
11.549000,-0.0481,0.0508,0.0994,0.122
11.554000,-0.0544,0.0441,0.1254,0.144
11.559000,-0.0522,0.0362,0.1062,0.124
11.564000,-0.0347,0.0344,0.0849,0.098
11.569000,-0.0201,0.0362,0.0673,0.079
11.573000,-0.0188,0.0427,0.0342,0.058
11.580000,-0.0463,0.0575,0.0417,0.085
11.584000,-0.0952,0.0520,0.0123,0.109
11.603000,-0.1438,-0.0080,0.0293,0.147
11.604000,-0.1639,-0.0116,0.0508,0.172
11.605000,-0.1959,0.0263,0.0342,0.201
11.606000,-0.2136,0.0212,0.0380,0.218
11.609000,-0.2410,-0.0241,0.0372,0.245
11.614000,-0.2256,0.0165,0.0605,0.234
11.619000,-0.2423,-0.0288,0.0398,0.247
11.633000,-0.2506,-0.0736,0.0683,0.270
11.634000,-0.1984,-0.0670,0.0686,0.220
11.635000,-0.1454,-0.0782,0.1488,0.222
11.647000,-0.1544,-0.1178,0.1882,0.270
11.648000,-0.1322,-0.1000,0.2019,0.261
11.649000,-0.0590,-0.0730,0.1694,0.194
11.661000,-0.0418,-0.0770,0.1706,0.192
11.662000,-0.0579,-0.0989,0.2100,0.239
11.665000,-0.0654,-0.1098,0.1933,0.232
11.670000,-0.0181,-0.0923,0.0972,0.135
11.675000,0.0088,-0.0713,0.0266,0.077
11.680000,0.0495,-0.0374,-0.0139,0.064
11.685000,0.0852,-0.0098,-0.0045,0.086
11.689000,0.0910,-0.0038,-0.0154,0.092
11.695000,0.0824,0.0104,-0.0692,0.108
11.700000,0.0454,0.0008,-0.0684,0.082
11.719000,0.0562,0.0138,-0.0713,0.092
11.720000,0.0433,0.0230,-0.1019,0.113
11.722000,0.0652,0.0072,-0.0981,0.118
11.723000,0.0729,-0.0002,-0.0673,0.099
11.745000,0.0512,0.0078,-0.0419,0.067
11.746000,0.0572,0.0394,-0.0502,0.086
11.747000,0.0598,0.0138,-0.0490,0.079
11.747000,0.0849,0.0252,-0.0848,0.123
11.748000,0.0422,0.0483,-0.1204,0.136
11.751000,0.0570,0.0368,-0.1140,0.133
11.759000,0.0205,0.0587,-0.1371,0.151
11.761000,0.0043,0.0816,-0.1445,0.166
11.766000,-0.0355,0.1090,-0.1443,0.184
11.771000,-0.0800,0.1079,-0.0918,0.163
11.776000,-0.0459,0.1150,-0.1143,0.169
11.781000,-0.0453,0.0996,-0.0926,0.143
11.786000,-0.1088,0.1163,-0.0827,0.179
11.792000,-0.1067,0.1128,-0.0620,0.167
11.797000,-0.0773,0.0761,-0.0081,0.109
11.801000,-0.1002,0.0907,0.0528,0.145
11.823000,-0.0956,0.0553,0.0601,0.126
11.826000,-0.0958,0.0381,0.0617,0.120
11.827000,-0.0710,0.0282,0.0920,0.120
11.827000,-0.0690,0.0076,0.0784,0.105
11.832000,-0.0444,-0.0020,0.0936,0.104
11.835000,-0.0344,-0.0400,0.0579,0.078
11.836000,-0.0279,-0.0314,0.0501,0.065
11.864000,0.0258,-0.0538,0.0258,0.065
11.866000,0.0303,-0.0806,0.0101,0.087
11.866000,0.0193,-0.0681,-0.0007,0.071
11.867000,0.0060,-0.0794,-0.0373,0.088
11.867000,0.0233,-0.0751,-0.0761,0.109
11.868000,0.0071,-0.0803,-0.0635,0.103
11.878000,0.0291,-0.0582,-0.0949,0.115
11.879000,0.0257,-0.0719,-0.1000,0.126
11.882000,0.0153,-0.0723,-0.1074,0.130
11.888000,0.0479,-0.0729,-0.1563,0.179
11.892000,0.0646,-0.0532,-0.1362,0.160
11.897000,0.0942,-0.0301,-0.1580,0.186
11.902000,0.1201,-0.0215,-0.1311,0.179
11.907000,0.1279,-0.0260,-0.1734,0.217
11.912000,0.1299,0.0015,-0.1931,0.233
11.918000,0.1531,0.0098,-0.1631,0.224
11.935000,0.1514,0.0132,-0.1168,0.192
11.937000,0.1629,-0.0155,-0.0938,0.189
11.937000,0.1553,0.0059,-0.0391,0.160
11.938000,0.1775,-0.0322,0.0365,0.184
11.942000,0.1651,-0.0190,0.0498,0.174
11.948000,0.1718,-0.0260,0.0300,0.176
11.952000,0.1594,-0.0698,0.0366,0.178
11.967000,0.1719,-0.0384,0.0766,0.192
11.968000,0.1405,-0.0607,0.0770,0.171
11.968000,0.1058,-0.0852,0.0430,0.143
11.983000,0.1188,-0.0999,0.0366,0.160
11.984000,0.0842,-0.0849,0.0455,0.128
11.984000,0.0437,-0.0724,0.0472,0.097
11.998000,0.0215,-0.0766,0.0428,0.090
11.999000,0.0017,-0.0320,0.0633,0.071
12.000000,0.0056,-0.0508,0.0575,0.077
12.004000,-0.0072,-0.0420,0.0185,0.046
12.008000,-0.0093,-0.0251,0.0332,0.043
12.013000,-0.0363,-0.0284,0.0754,0.088
12.019000,-0.0809,-0.0186,0.0483,0.096
12.024000,-0.1027,0.0208,0.0251,0.108
12.029000,-0.1549,0.0313,0.0080,0.158
12.034000,-0.1177,0.0014,-0.0112,0.118
12.055000,-0.1519,-0.0010,0.0089,0.152
12.056000,-0.1654,0.0014,-0.0293,0.168
12.057000,-0.1503,0.0108,-0.0317,0.154
12.058000,-0.1374,0.0475,-0.0340,0.149
12.061000,-0.1449,0.0601,-0.0458,0.163
12.064000,-0.1035,0.0179,-0.0410,0.113
12.069000,-0.0409,0.0379,-0.0718,0.091
12.090000,-0.0558,0.0766,-0.0476,0.106
12.091000,-0.0479,0.1186,-0.0235,0.130
12.092000,-0.0211,0.0937,-0.0506,0.109
12.093000,-0.0171,0.0797,-0.0250,0.085
12.095000,-0.0046,0.0754,-0.0387,0.085
12.100000,0.0115,0.0426,-0.0273,0.052
12.105000,0.0228,0.0029,-0.0468,0.052
12.110000,-0.0016,-0.0401,-0.0971,0.105
12.115000,-0.0317,-0.0553,-0.0664,0.092
12.120000,-0.0010,-0.0954,-0.0455,0.106
12.125000,0.0247,-0.0829,-0.0606,0.106
12.131000,0.0205,-0.1050,-0.0187,0.109
12.135000,0.0306,-0.0675,0.0014,0.074
12.154000,0.0465,-0.0719,0.0000,0.086
12.156000,0.0610,-0.0407,-0.0215,0.076
12.156000,0.0696,-0.0441,-0.0035,0.082
12.157000,0.0758,-0.0439,0.0086,0.088
12.160000,0.0987,-0.0153,-0.0114,0.101
12.166000,0.1273,-0.0177,-0.0084,0.129
12.170000,0.1153,0.0001,0.0078,0.116
12.186000,0.0949,0.0201,0.0061,0.097
12.187000,0.1057,0.0139,0.0008,0.107
12.188000,0.0963,0.0136,-0.0259,0.101
12.200000,0.0477,0.0287,-0.0242,0.061
12.201000,0.0362,-0.0074,-0.0751,0.084
12.201000,0.0271,-0.0051,-0.0583,0.065
12.212000,0.0643,-0.0125,-0.1335,0.149
12.213000,0.0288,-0.0162,-0.1739,0.177
12.216000,-0.0233,0.0324,-0.1667,0.171
12.221000,-0.0276,0.0331,-0.1311,0.138
12.226000,-0.0665,-0.0066,-0.1478,0.162
12.231000,-0.0589,0.0112,-0.1464,0.158
12.236000,-0.0264,0.0347,-0.1365,0.143
12.242000,-0.0356,0.0188,-0.1453,0.151
12.246000,-0.0684,-0.0076,-0.1514,0.166
12.252000,-0.0770,-0.0183,-0.1110,0.136
12.267000,-0.0842,0.0066,-0.0804,0.117
12.268000,-0.0687,-0.0174,-0.0501,0.087
12.268000,-0.0474,-0.0293,-0.0188,0.059
12.271000,-0.0345,0.0017,-0.0115,0.036
12.290000,0.0034,-0.0389,-0.0198,0.044
12.291000,-0.0003,-0.0566,0.0325,0.065
12.292000,0.0233,-0.0517,0.0418,0.070
12.292000,0.0504,-0.0503,0.0773,0.105
12.297000,0.0403,-0.0299,0.0497,0.071
12.302000,0.0277,-0.0203,0.0593,0.068
12.308000,0.0259,-0.0179,0.0143,0.035
12.311000,0.0073,-0.0096,-0.0196,0.023
12.316000,0.0136,-0.0037,-0.0249,0.029
12.321000,-0.0004,0.0271,-0.0350,0.044
12.326000,0.0164,0.0411,-0.0249,0.051
12.332000,0.0377,0.0311,-0.0506,0.070
12.337000,0.0446,0.0355,-0.0761,0.095
12.342000,0.0372,-0.0040,-0.0599,0.071
12.347000,0.0036,0.0078,-0.0378,0.039
12.352000,0.0224,-0.0208,-0.0634,0.070
12.369000,0.0111,-0.0254,-0.0757,0.081
12.370000,0.0546,-0.0739,-0.0855,0.125
12.370000,0.0679,-0.0792,-0.0714,0.126
12.372000,0.1131,-0.1296,-0.0183,0.173
12.397000,0.1045,-0.1249,0.0085,0.163
12.398000,0.1377,-0.0989,0.0485,0.176
12.398000,0.1694,-0.1099,0.0788,0.217
12.399000,0.1426,-0.1386,0.1362,0.241
12.399000,0.1315,-0.2003,0.0901,0.256
12.403000,0.1289,-0.2282,0.0470,0.266
12.409000,0.1263,-0.1799,0.0208,0.221
12.413000,0.0643,-0.1238,-0.0419,0.146
12.418000,0.0110,-0.0870,-0.0971,0.131
12.424000,-0.0373,-0.0684,-0.1083,0.133
12.428000,-0.0898,-0.0523,-0.1424,0.176
12.433000,-0.1077,-0.0305,-0.1230,0.166
12.438000,-0.1180,-0.0219,-0.0769,0.143
12.443000,-0.0901,-0.0444,-0.0115,0.101
12.448000,-0.0965,-0.0691,0.0151,0.120
12.453000,-0.0741,-0.0699,0.0852,0.133
12.458000,-0.0673,-0.0742,0.1204,0.157
12.463000,-0.0393,-0.0774,0.1139,0.143
12.468000,-0.0126,-0.0532,0.1181,0.130
12.485000,0.0090,-0.0386,0.1508,0.156
12.486000,0.0529,-0.0432,0.0483,0.084
12.486000,0.0441,-0.0299,0.0322,0.062
12.488000,0.0648,0.0095,0.0082,0.066
12.511000,0.0496,0.0082,-0.0311,0.059
12.512000,0.0310,0.0426,-0.0747,0.091
12.513000,0.0278,0.0707,-0.0954,0.122
12.513000,0.0398,0.0844,-0.1446,0.172
12.514000,0.0078,0.0944,-0.1993,0.221
12.520000,-0.0406,0.0817,-0.2063,0.226
12.524000,-0.0552,0.0656,-0.1884,0.207
12.530000,-0.0269,0.0887,-0.1624,0.187
12.535000,-0.0379,0.0606,-0.1486,0.165
12.539000,-0.0179,0.0245,-0.1489,0.152
12.545000,0.0080,0.0302,-0.0945,0.099
12.550000,0.0030,-0.0010,-0.0583,0.058
12.555000,-0.0101,-0.0189,-0.0627,0.066
12.560000,0.0151,-0.0664,-0.0646,0.094
12.565000,0.0094,-0.0410,-0.0430,0.060
12.570000,0.0001,-0.0539,-0.0561,0.078
12.575000,0.0030,-0.0157,-0.0455,0.048
12.580000,0.0332,-0.0538,-0.0614,0.088
12.585000,0.0145,-0.0524,-0.0703,0.089
12.590000,0.0232,-0.0392,-0.0283,0.054
12.611000,0.0222,0.0215,-0.0113,0.033
12.613000,0.0224,0.0294,0.0140,0.040
12.614000,0.0425,0.0302,-0.0118,0.053
12.614000,0.0506,0.0405,-0.0063,0.065
12.618000,0.0596,0.0175,-0.0027,0.062
12.620000,0.0660,0.0257,-0.0356,0.079
12.655000,0.0628,0.0325,-0.0397,0.081
12.657000,0.0762,0.0014,-0.1078,0.132
12.657000,0.0609,-0.0069,-0.1349,0.148
12.658000,0.0600,0.0050,-0.1323,0.145
12.660000,0.0437,-0.0141,-0.1583,0.165
12.661000,0.0299,-0.0163,-0.1463,0.150
12.661000,0.0279,-0.0044,-0.1122,0.116
12.662000,0.0380,-0.0104,-0.0857,0.094
12.666000,0.0243,-0.0044,-0.0511,0.057
12.672000,0.0593,0.0039,-0.0465,0.075
12.677000,0.0584,0.0346,-0.0302,0.074
12.681000,0.0861,-0.0097,-0.0447,0.097
12.686000,0.0791,-0.0299,-0.0519,0.099
12.705000,0.1351,-0.0344,0.0040,0.139
12.706000,0.1146,-0.0401,0.0109,0.122
12.707000,0.1312,-0.0327,0.0260,0.138
12.707000,0.1452,-0.0218,0.0600,0.159
12.711000,0.1281,-0.0146,0.0733,0.148
12.717000,0.1276,-0.0169,0.0472,0.137
12.722000,0.0961,-0.0263,0.0057,0.100
12.733000,0.1254,-0.0629,0.0381,0.145
12.734000,0.0784,-0.0517,0.0025,0.094
12.737000,0.0375,-0.0655,-0.0078,0.076
12.746000,0.0419,-0.0507,0.0140,0.067
12.747000,0.0045,-0.0478,0.0026,0.048
12.752000,0.0017,-0.0319,-0.0038,0.032
12.759000,0.0023,-0.0089,-0.0088,0.013
12.762000,-0.0351,-0.0218,-0.0625,0.075
12.767000,-0.0578,-0.0143,-0.0814,0.101
12.772000,-0.0950,-0.0117,-0.0966,0.136
12.779000,-0.1247,0.0005,-0.0869,0.152
12.783000,-0.1128,-0.0350,-0.0584,0.132
12.788000,-0.1212,-0.0357,-0.0408,0.133
12.794000,-0.1298,-0.0791,-0.0081,0.152
12.798000,-0.1299,-0.1067,-0.0029,0.168
12.803000,-0.0778,-0.0950,-0.0027,0.123
12.823000,-0.0725,-0.0548,0.0794,0.121
12.824000,-0.0529,-0.0684,0.0683,0.110
12.825000,-0.0240,-0.0724,0.0656,0.101
12.825000,-0.0085,-0.0668,0.0889,0.112
12.828000,0.0238,-0.0317,0.0932,0.101
12.833000,0.0332,-0.0478,0.1259,0.139
12.838000,0.0531,-0.0817,0.1003,0.140
12.858000,0.0469,-0.0725,0.1297,0.156
12.859000,0.0538,-0.0598,0.1164,0.141
12.860000,0.0428,-0.0911,0.0760,0.126
12.861000,0.0378,-0.1519,0.0549,0.166
12.864000,0.0362,-0.1337,0.0305,0.142
12.869000,0.0323,-0.1098,0.0181,0.116
12.876000,0.0272,-0.0718,-0.0133,0.078
12.879000,0.0280,-0.0627,-0.0446,0.082
12.884000,0.0514,-0.0489,-0.0783,0.106
12.889000,0.0226,0.0146,-0.1012,0.105
12.894000,-0.0308,0.0194,-0.1016,0.108
12.899000,-0.0529,0.0277,-0.1829,0.192
12.904000,-0.0284,0.0573,-0.2103,0.220
12.924000,-0.0718,0.0640,-0.2196,0.240
12.926000,-0.1064,0.0564,-0.1519,0.194
12.926000,-0.0814,0.0573,-0.1547,0.184
12.927000,-0.0648,0.0462,-0.1551,0.174
12.930000,-0.0529,0.0162,-0.1529,0.163
12.937000,-0.0326,0.0315,-0.1210,0.129
12.939000,0.0008,0.0396,-0.1059,0.113
12.955000,0.0054,0.0298,-0.1183,0.122
12.956000,0.0196,-0.0239,-0.1105,0.115
12.957000,0.0005,-0.0415,-0.1182,0.125
12.969000,0.0435,-0.0626,-0.1176,0.140
12.970000,0.0305,-0.0646,-0.0767,0.105
12.970000,0.0734,-0.0582,-0.1027,0.139
12.981000,0.0743,-0.0566,-0.0738,0.119
12.982000,0.1202,-0.0751,-0.0094,0.142
12.985000,0.1431,-0.0674,0.0093,0.158
12.990000,0.1409,-0.0467,0.0495,0.156
12.995000,0.1529,-0.0119,0.0432,0.159
13.000000,0.1349,-0.0248,0.0752,0.156
13.005000,0.1419,-0.0269,0.0202,0.146
13.010000,0.1772,-0.0052,0.0407,0.182
13.016000,0.1836,-0.0027,0.0325,0.186
13.021000,0.1827,0.0058,-0.0041,0.183
13.040000,0.1651,-0.0143,-0.0131,0.166
13.041000,0.1489,0.0037,-0.0543,0.159
13.042000,0.0711,0.0596,-0.0739,0.119
13.043000,0.0319,0.0248,-0.0960,0.104
13.046000,-0.0235,0.0614,-0.0968,0.117
13.051000,-0.0868,0.0788,-0.0882,0.147
13.055000,-0.1472,0.0735,-0.0430,0.170
13.070000,-0.1656,0.0789,-0.0290,0.186
13.071000,-0.1422,0.0545,-0.0318,0.156
13.071000,-0.1284,0.0601,-0.0426,0.148
13.085000,-0.1147,0.0905,-0.0022,0.146
13.086000,-0.0630,0.0577,0.0108,0.086
13.087000,-0.0248,0.0490,0.0145,0.057
13.099000,-0.0021,0.0084,0.1328,0.133
13.100000,0.0322,-0.0189,0.2387,0.242
13.101000,0.0960,-0.0245,0.2848,0.302
13.106000,0.1201,-0.0574,0.2812,0.311
13.111000,0.1275,-0.1267,0.2354,0.296
13.117000,0.0919,-0.1242,0.2378,0.284
13.121000,0.0911,-0.0565,0.1277,0.167
13.126000,0.0902,-0.0533,0.0197,0.107
13.132000,0.0703,-0.0039,-0.0320,0.077
13.137000,0.1073,0.0023,-0.1060,0.151
13.156000,0.0857,0.0085,-0.1537,0.176
13.157000,0.0086,0.0324,-0.1885,0.191
13.158000,-0.0228,0.0525,-0.2067,0.214
13.159000,-0.0317,0.0606,-0.1172,0.136
13.191000,-0.0464,0.0674,-0.0730,0.110
13.192000,-0.0466,0.0551,-0.0355,0.080
13.193000,-0.0668,0.0357,0.0241,0.080
13.194000,-0.0959,0.0437,0.0677,0.125
13.194000,-0.1289,0.0421,0.0513,0.145
13.195000,-0.2016,0.0392,0.0874,0.223
13.195000,-0.2415,0.0434,0.0769,0.257
13.197000,-0.2454,0.0227,0.0488,0.251
13.203000,-0.2114,0.0200,0.0259,0.214
13.209000,-0.1850,0.0364,-0.0048,0.189
13.213000,-0.1946,0.0229,-0.0293,0.198
13.218000,-0.1628,0.0168,-0.0748,0.180
13.223000,-0.0710,0.0523,-0.0675,0.111
13.229000,-0.0274,0.0626,-0.0838,0.108
13.233000,-0.0270,0.0562,-0.0963,0.115
13.238000,-0.0183,0.0297,-0.0422,0.055
13.258000,0.0343,0.0152,-0.0597,0.070
13.260000,0.0759,0.0104,-0.0436,0.088
13.260000,0.0936,0.0104,-0.0537,0.108
13.261000,0.1231,-0.0004,-0.0612,0.137
13.264000,0.1417,-0.0300,-0.0494,0.153
13.269000,0.1377,-0.0819,-0.0766,0.178
13.274000,0.1362,-0.0943,-0.0512,0.173
13.291000,0.1301,-0.1077,-0.0805,0.187
13.292000,0.1299,-0.1270,-0.0871,0.201
13.293000,0.1276,-0.1235,-0.0783,0.194
13.294000,0.0897,-0.1320,-0.1291,0.205
13.299000,0.0997,-0.1405,-0.1097,0.204
13.304000,0.0823,-0.1216,-0.1287,0.195
13.310000,0.0508,-0.0922,-0.1191,0.159
13.314000,0.0420,-0.0606,-0.1384,0.157
13.319000,0.0465,-0.0674,-0.1043,0.133
13.324000,0.0605,-0.0301,-0.1014,0.122
13.329000,0.0934,-0.0359,-0.0761,0.126
13.334000,0.1021,-0.0453,-0.0676,0.131
13.339000,0.0620,-0.0260,-0.0664,0.094
13.362000,0.0946,-0.0211,-0.0711,0.120
13.363000,0.1790,-0.0567,-0.0603,0.197
13.364000,0.1510,-0.0444,-0.0829,0.178
13.365000,0.1494,-0.0464,-0.0842,0.178
13.367000,0.1929,-0.0307,-0.0688,0.207
13.369000,0.2290,-0.0579,-0.0715,0.247
13.374000,0.2246,-0.0468,-0.0516,0.235
13.394000,0.2250,-0.0335,-0.0284,0.229
13.396000,0.1873,-0.0927,-0.0090,0.209
13.396000,0.1928,-0.0743,-0.0644,0.216
13.397000,0.1460,-0.0299,-0.0790,0.169
13.400000,0.1517,-0.0072,-0.0530,0.161
13.405000,0.1525,-0.0464,-0.0689,0.174
13.417000,0.1379,-0.0497,-0.0585,0.158
13.418000,0.1222,-0.0600,-0.0353,0.141
13.420000,0.1160,-0.0632,-0.0480,0.141
13.425000,0.0863,-0.0248,-0.0630,0.110
13.430000,0.0438,-0.0212,-0.0212,0.053
13.435000,0.0408,-0.0757,0.0084,0.086
13.440000,0.0139,-0.0693,-0.0172,0.073
13.446000,-0.0069,-0.0416,0.0013,0.042
13.450000,-0.0239,-0.0580,0.0125,0.064
13.455000,-0.0266,-0.0090,0.0058,0.029
13.470000,-0.0364,-0.0114,0.0706,0.080
13.472000,-0.0071,0.0207,0.0710,0.074
13.472000,-0.0173,0.0478,0.0361,0.062
13.496000,-0.0003,0.0332,0.0659,0.074
13.497000,0.0341,0.0555,0.0542,0.085
13.498000,0.0266,0.0742,0.0715,0.106
13.498000,-0.0239,0.0785,0.0581,0.101
13.499000,-0.0825,0.0627,0.0130,0.104
13.501000,-0.0364,0.0993,-0.0089,0.106
13.506000,0.0127,0.0727,-0.0340,0.081
13.511000,0.0436,0.0689,-0.0861,0.119
13.516000,0.0127,0.0674,-0.1202,0.138
13.521000,-0.0331,0.1063,-0.1803,0.212
13.527000,-0.0524,0.1199,-0.1596,0.206
13.531000,-0.1167,0.0906,-0.1062,0.182
13.536000,-0.1591,0.0948,-0.0771,0.201
13.541000,-0.2000,0.0633,-0.0804,0.225
13.546000,-0.2466,0.0072,-0.0554,0.253
13.552000,-0.2454,-0.0176,-0.0140,0.246
13.556000,-0.1940,-0.0351,-0.0275,0.199
13.561000,-0.2282,-0.0264,0.0268,0.231
13.567000,-0.2218,-0.0307,0.0465,0.229
13.572000,-0.2164,-0.0054,0.0817,0.231
13.592000,-0.1659,-0.0077,0.0538,0.175
13.593000,-0.1242,0.0127,0.0167,0.126
13.594000,-0.0898,-0.0217,0.0621,0.111
13.594000,-0.1091,-0.0095,0.0717,0.131
13.597000,-0.1165,0.0050,0.0349,0.122
13.602000,-0.0454,0.0324,0.0115,0.057
13.607000,-0.0163,0.0073,0.0167,0.024
13.626000,0.0044,0.0002,0.0301,0.030
13.627000,0.0178,0.0394,0.0197,0.048
13.627000,0.0562,0.0320,0.0047,0.065
13.628000,0.0565,0.0366,0.0195,0.070
13.632000,0.0498,0.0695,-0.0300,0.091
13.638000,0.0030,0.0428,-0.0056,0.043
13.644000,0.0087,0.0364,0.0030,0.038
13.647000,0.0158,0.0527,-0.0300,0.063
13.652000,-0.0081,0.0450,0.0093,0.047
13.658000,0.0026,0.0066,-0.0468,0.047
13.663000,0.0311,0.0088,-0.0359,0.048
13.668000,-0.0355,-0.0223,-0.0145,0.044
13.673000,-0.0602,-0.0210,-0.0729,0.097
13.690000,-0.0515,-0.0043,-0.0728,0.089
13.691000,-0.1081,-0.0554,-0.0704,0.140
13.692000,-0.0954,-0.0468,-0.0588,0.121
13.722000,-0.1041,-0.0644,-0.0557,0.134
13.723000,-0.1008,-0.0616,-0.0336,0.123
13.723000,-0.1308,-0.0529,-0.0318,0.145
13.724000,-0.1023,-0.0776,-0.0333,0.133
13.724000,-0.1333,-0.0842,0.0021,0.158
13.725000,-0.1081,-0.1264,-0.0255,0.168
13.725000,-0.1151,-0.1220,-0.0373,0.172
13.734000,-0.0685,-0.0831,-0.0894,0.140
13.734000,-0.0401,-0.1135,-0.1220,0.171
13.739000,0.0108,-0.1044,-0.1176,0.158
13.746000,0.0292,-0.0385,-0.1346,0.143
13.749000,0.0819,-0.0052,-0.1541,0.175
13.754000,0.1532,0.0469,-0.1366,0.211
13.759000,0.2192,0.0747,-0.1027,0.253
13.764000,0.2466,0.0667,-0.0763,0.267
13.769000,0.2667,0.0861,-0.0999,0.297
13.774000,0.2840,0.0793,-0.0755,0.304
13.779000,0.3080,0.0725,-0.1009,0.332
13.784000,0.3685,0.0303,-0.0929,0.381
13.789000,0.3514,-0.0259,-0.1144,0.370
13.808000,0.3819,-0.0388,-0.1240,0.403
13.810000,0.3483,-0.0683,-0.0790,0.364
13.810000,0.2948,-0.0964,-0.0188,0.311
13.811000,0.1753,-0.1041,0.0516,0.210
13.814000,0.1434,-0.0950,0.0882,0.193
13.820000,0.0997,-0.0848,0.0938,0.161
13.824000,0.0539,-0.1352,0.0876,0.170
13.839000,-0.0356,-0.1437,0.0554,0.158
13.840000,-0.0401,-0.1413,-0.0622,0.159
13.841000,-0.0756,-0.0808,-0.0981,0.148
13.854000,-0.0421,-0.0742,-0.1208,0.148
13.855000,-0.0564,-0.0558,-0.0925,0.122
13.856000,-0.0933,-0.0197,-0.0694,0.118
13.867000,-0.0909,0.0291,-0.0440,0.105
13.868000,-0.0328,0.0195,-0.0142,0.041
13.870000,0.0676,0.0253,-0.0191,0.075
13.876000,0.0985,0.0155,0.0080,0.100
13.880000,0.0843,-0.0226,0.0717,0.113
13.885000,0.1025,-0.0285,0.0338,0.112
13.890000,0.1003,-0.0556,0.0414,0.122
13.906000,0.0994,-0.0470,0.0038,0.110
13.907000,0.0986,-0.0740,-0.0100,0.124
13.908000,0.0751,-0.0937,-0.0203,0.122
13.933000,0.0076,-0.0669,-0.0414,0.079
13.934000,-0.0334,-0.0581,-0.0255,0.072
13.934000,-0.0113,-0.0303,-0.0454,0.056
13.935000,-0.0490,0.0174,-0.0413,0.066
13.936000,-0.0581,0.0019,-0.0181,0.061
13.936000,-0.0707,0.0316,-0.0532,0.094
13.941000,-0.0961,0.0670,-0.0818,0.143
13.946000,-0.1034,0.0451,-0.0593,0.127
13.951000,-0.1746,0.0614,-0.0454,0.191
13.957000,-0.2009,0.0560,-0.0352,0.212
13.962000,-0.2092,0.0448,-0.0372,0.217
13.966000,-0.1755,0.0740,-0.0391,0.194
13.971000,-0.1835,0.0589,-0.0103,0.193
13.976000,-0.2448,0.0416,-0.0088,0.248
13.982000,-0.2260,0.0364,0.0046,0.229
13.987000,-0.1836,0.0252,0.0252,0.187
13.992000,-0.1558,0.0035,0.0554,0.165
13.997000,-0.1435,0.0188,0.0523,0.154
14.002000,-0.0980,0.0030,0.0838,0.129
14.007000,-0.0719,-0.0055,0.0761,0.105
14.025000,-0.0411,-0.0103,0.0497,0.065
14.027000,0.0097,-0.0377,0.0497,0.063
14.027000,0.0434,0.0016,0.0224,0.049
14.028000,0.0519,0.0312,0.0062,0.061
14.032000,0.1150,0.0141,0.0078,0.116
14.037000,0.1396,0.0530,0.0036,0.149
14.042000,0.1509,0.0358,-0.0660,0.169
14.061000,0.1099,0.0295,-0.0851,0.142
14.063000,0.0715,0.0195,-0.0891,0.116
14.063000,0.0381,-0.0093,-0.1192,0.125
14.064000,-0.0067,0.0120,-0.1612,0.162
14.068000,-0.0513,0.0069,-0.1664,0.174
14.073000,-0.0493,0.0221,-0.1730,0.181
14.079000,-0.0746,0.0051,-0.1750,0.190
14.083000,-0.0854,0.0285,-0.1726,0.195
14.088000,-0.1020,0.0042,-0.1252,0.161
14.093000,-0.1229,-0.0246,-0.0758,0.146
14.097000,-0.1148,0.0108,-0.0280,0.119
14.103000,-0.0877,-0.0051,-0.0186,0.090
14.107000,-0.0881,0.0100,-0.0150,0.090
14.113000,-0.0481,0.0131,-0.0327,0.060
14.118000,-0.0297,0.0043,-0.0179,0.035
14.123000,0.0335,0.0229,-0.0327,0.052
14.130000,0.0581,0.0153,-0.0330,0.069
14.133000,0.0753,-0.0018,-0.0002,0.075
14.138000,0.0982,-0.0436,0.0242,0.110
14.173000,0.1279,-0.0126,0.0545,0.140
14.174000,0.1562,-0.0092,0.0800,0.176
14.175000,0.1712,-0.0236,0.1055,0.202
14.176000,0.1943,-0.0260,0.0812,0.212
14.182000,0.1911,-0.0141,0.0121,0.192
14.184000,0.1901,-0.0628,0.0386,0.204
14.185000,0.1962,-0.0553,-0.0253,0.205
14.185000,0.2106,-0.0799,-0.0817,0.240
14.186000,0.1868,-0.1197,-0.1035,0.245
14.188000,0.1785,-0.0952,-0.1420,0.247
14.204000,0.1419,-0.0435,-0.1034,0.181
14.205000,0.1399,-0.0505,-0.1223,0.193
14.205000,0.0987,-0.0313,-0.1175,0.157
14.209000,0.0994,-0.0253,-0.1035,0.146
14.215000,0.0776,0.0079,-0.0848,0.115
14.219000,0.0466,0.0064,-0.0651,0.080
14.224000,0.0385,0.0441,-0.0253,0.064
14.229000,0.0043,0.0589,-0.0498,0.077
14.234000,0.0108,0.0439,-0.0158,0.048
14.239000,0.0113,0.0219,-0.0068,0.026
14.256000,-0.0036,0.0287,0.0058,0.029
14.257000,-0.0432,0.0199,0.0303,0.056
14.257000,-0.0469,0.0041,0.0654,0.081
14.259000,-0.0448,0.0062,0.0669,0.081
14.280000,-0.0581,0.0071,0.0719,0.093
14.281000,-0.0701,0.0140,0.0791,0.107
14.281000,-0.0856,-0.0065,0.0865,0.122
14.281000,-0.0821,-0.0197,0.1058,0.135
14.285000,-0.0810,0.0159,0.0929,0.124
14.290000,-0.0834,-0.0045,0.1208,0.147
14.296000,-0.0658,-0.0616,0.0870,0.125
14.300000,-0.0661,-0.0244,0.0656,0.096
14.305000,-0.0640,0.0019,0.0814,0.104
14.310000,-0.0335,0.0172,0.0805,0.089
14.315000,-0.0188,-0.0209,0.0445,0.053
14.320000,-0.0184,-0.0172,-0.0361,0.044
14.325000,0.0127,-0.0040,-0.0376,0.040
14.330000,0.0329,-0.0146,-0.0141,0.039
14.336000,0.0351,-0.0145,-0.0452,0.059
14.341000,0.0242,-0.0119,-0.0240,0.036
14.356000,0.0551,-0.0059,-0.0586,0.081
14.357000,0.0775,0.0119,-0.0683,0.104
14.358000,0.0427,-0.0226,-0.0934,0.105
14.361000,0.0236,-0.0450,-0.0556,0.075
14.386000,0.0110,-0.0293,-0.0221,0.038
14.387000,-0.0144,-0.0245,-0.0436,0.052
14.387000,-0.0218,-0.0078,-0.0380,0.045
14.388000,-0.0196,-0.0317,-0.0207,0.043
14.388000,-0.0434,-0.0091,-0.0502,0.067
14.391000,-0.0361,-0.0034,-0.0581,0.068
14.400000,-0.0478,-0.0012,-0.1134,0.123
14.401000,-0.0667,-0.0109,-0.0850,0.109
14.407000,-0.0512,0.0222,-0.0792,0.097
14.413000,-0.0608,0.0337,-0.0639,0.094
14.417000,-0.0522,0.0368,-0.0058,0.064
14.422000,-0.0140,0.0292,-0.0015,0.032
14.426000,-0.0114,0.0062,-0.0266,0.030
14.432000,-0.0159,-0.0214,-0.0348,0.044
14.436000,-0.0131,-0.0203,0.0128,0.027
14.442000,-0.0197,0.0093,0.0209,0.030
14.457000,-0.0404,0.0077,0.0100,0.042
14.458000,-0.0680,-0.0116,-0.0020,0.069
14.458000,-0.0918,-0.0213,-0.0211,0.097
14.483000,-0.0966,-0.0701,-0.0472,0.128
14.484000,-0.1073,-0.0413,-0.1051,0.156
14.484000,-0.0883,0.0075,-0.0963,0.131
14.485000,-0.1004,-0.0213,-0.1433,0.176
14.485000,-0.0733,-0.0036,-0.1629,0.179
14.487000,-0.0489,0.0413,-0.1326,0.147
14.492000,-0.0223,0.0501,-0.0789,0.096
14.498000,0.0244,0.0328,-0.0932,0.102
14.503000,0.0828,0.0346,-0.1122,0.144
14.508000,0.1242,0.0542,-0.1108,0.175
14.513000,0.1795,0.0463,-0.0998,0.211
14.518000,0.2190,0.0622,-0.0639,0.236
14.523000,0.2309,0.0317,-0.0377,0.236
14.528000,0.2428,-0.0105,0.0027,0.243
14.532000,0.3152,-0.0416,0.0429,0.321
14.538000,0.3360,-0.0415,0.0250,0.339
14.543000,0.3305,-0.0617,0.0205,0.337
14.548000,0.3060,-0.1256,0.0529,0.335
14.553000,0.2425,-0.1497,0.0400,0.288
14.558000,0.2066,-0.1261,-0.0547,0.248
14.578000,0.1483,-0.1289,-0.1286,0.235
14.579000,0.1294,-0.1292,-0.1416,0.231
14.580000,0.0560,-0.1366,-0.1322,0.198
14.580000,-0.0169,-0.1036,-0.1492,0.182
14.584000,-0.0893,-0.0721,-0.1627,0.199
14.589000,-0.0983,-0.0931,-0.1564,0.207
14.593000,-0.1110,-0.0985,-0.0910,0.174
14.613000,-0.0984,-0.1003,-0.0324,0.144
14.614000,-0.1013,-0.0843,-0.0293,0.135
14.614000,-0.0933,-0.0804,0.0545,0.135
14.615000,-0.0686,-0.1276,0.0769,0.164
14.619000,-0.0143,-0.0901,0.1098,0.143
14.624000,-0.0235,-0.1075,0.1415,0.179
14.630000,0.0101,-0.1164,0.1540,0.193
14.634000,0.0589,-0.0814,0.1202,0.157
14.639000,0.0787,-0.0490,0.0715,0.117
14.644000,0.0460,-0.0358,0.0923,0.109
14.650000,0.0477,-0.0155,0.0301,0.058
14.654000,0.0099,0.0260,0.0016,0.028
14.660000,0.0043,0.0506,-0.0407,0.065
14.664000,0.0044,0.1059,-0.0517,0.118
14.669000,-0.0110,0.1489,-0.0711,0.165
14.675000,-0.0655,0.1559,-0.0632,0.181
14.694000,-0.0399,0.1177,-0.0899,0.153
14.696000,-0.0464,0.1486,-0.0811,0.176
14.696000,-0.0884,0.1330,-0.0689,0.174
14.697000,-0.0943,0.0699,-0.0448,0.126
14.701000,-0.0904,0.0312,-0.0374,0.103
14.705000,-0.0688,0.0105,-0.0028,0.070
14.710000,-0.0697,-0.0195,-0.0286,0.078
14.729000,-0.0491,-0.0183,-0.0221,0.057
14.730000,-0.0273,-0.0374,0.0106,0.048
14.731000,-0.0329,-0.0920,-0.0033,0.098
14.732000,-0.0016,-0.0915,-0.0469,0.103
14.736000,-0.0275,-0.0732,-0.0177,0.080
14.741000,-0.0412,-0.0693,-0.0435,0.092
14.747000,-0.0168,-0.0251,-0.0834,0.089
14.751000,-0.0271,-0.0015,-0.0899,0.094
14.756000,-0.0327,0.0018,-0.0739,0.081
14.760000,-0.0513,-0.0318,-0.0332,0.069
14.766000,-0.0439,-0.0461,-0.0630,0.090
14.771000,-0.0448,0.0063,-0.0414,0.061
14.776000,-0.0458,-0.0201,-0.0627,0.080
14.793000,-0.0684,-0.0249,-0.0659,0.098
14.794000,-0.0208,-0.0226,-0.0524,0.061
14.794000,0.0015,-0.0167,-0.0533,0.056
14.819000,-0.0071,-0.0084,-0.0837,0.084
14.821000,0.0163,-0.0026,-0.0984,0.100
14.821000,0.0040,-0.0456,-0.0942,0.105
14.822000,0.0015,-0.0384,-0.1042,0.111
14.823000,-0.0000,-0.0537,-0.0775,0.094
14.823000,-0.0205,-0.0464,-0.0641,0.082
14.827000,-0.0170,-0.0451,-0.0876,0.100
14.831000,-0.0172,-0.0580,-0.0919,0.110
14.837000,0.0193,-0.0162,-0.0724,0.077
14.840000,-0.0051,-0.0246,-0.0995,0.103
14.845000,0.0146,-0.0460,-0.0789,0.092
14.851000,0.0577,-0.0054,-0.0406,0.071
14.856000,0.0220,-0.0542,-0.0040,0.059
14.862000,0.0507,-0.0539,0.0229,0.078
14.866000,0.0827,-0.0549,0.0780,0.126
14.872000,0.0954,-0.0570,0.1088,0.155
14.877000,0.0973,-0.0507,0.0861,0.139
14.881000,0.0885,-0.0790,0.1456,0.188
14.887000,0.0915,-0.0962,0.1288,0.185
14.892000,0.1026,-0.1050,0.0635,0.160
14.911000,0.1312,-0.1255,0.0641,0.193
14.912000,0.1699,-0.1316,0.0387,0.218
14.913000,0.1477,-0.1305,0.0268,0.199
14.915000,0.1623,-0.1436,-0.0183,0.217
14.918000,0.1814,-0.0960,-0.0500,0.211
14.922000,0.1752,-0.0619,-0.0756,0.201
14.927000,0.1442,-0.0601,-0.0630,0.168
14.943000,0.1312,-0.0239,-0.0744,0.153
14.944000,0.1421,-0.0129,-0.1010,0.175
14.945000,0.1269,-0.0056,-0.1180,0.173
14.957000,0.0834,0.0004,-0.1053,0.134
14.959000,0.0843,0.0348,-0.1059,0.140
14.959000,0.0604,0.0214,-0.1139,0.131
14.970000,0.0689,-0.0025,-0.1148,0.134
14.971000,0.0428,0.0366,-0.1219,0.134
14.973000,0.0670,0.0113,-0.1458,0.161
14.984000,0.0257,-0.0246,-0.0904,0.097
14.985000,0.0158,0.0004,-0.0700,0.072
14.988000,0.0059,0.0215,-0.0713,0.075
14.993000,-0.0027,0.0188,-0.0443,0.048
14.998000,-0.0326,0.0600,-0.0531,0.086
15.003000,-0.0692,0.0355,-0.0414,0.088
15.008000,-0.1176,0.0149,-0.0474,0.128
15.023000,-0.1098,0.0087,-0.0212,0.112
15.024000,-0.1367,0.0085,0.0145,0.138
15.025000,-0.1573,0.0273,-0.0008,0.160
15.028000,-0.1517,0.0258,-0.0015,0.154
15.045000,-0.1734,0.0137,-0.0234,0.176
15.046000,-0.2186,0.0135,-0.0093,0.219
15.047000,-0.2313,0.0240,-0.0309,0.235
15.049000,-0.2284,0.0202,-0.0714,0.240
15.054000,-0.2386,0.0033,-0.0226,0.240
15.058000,-0.2415,0.0269,-0.0063,0.243
15.064000,-0.2040,0.0456,-0.0270,0.211
15.069000,-0.2011,0.0380,-0.0796,0.220
15.074000,-0.1353,0.0375,-0.0310,0.144
15.081000,-0.1175,0.0418,-0.0409,0.131
15.084000,-0.0641,0.0508,-0.0150,0.083
15.089000,-0.0040,0.0526,0.0119,0.054
15.094000,0.0318,0.0259,0.0008,0.041
15.099000,0.0685,0.0089,-0.0256,0.074
15.105000,0.0859,-0.0127,-0.0648,0.108
15.110000,0.0960,-0.0221,-0.0477,0.109
15.128000,0.1118,-0.0268,-0.0616,0.130
15.130000,0.1406,-0.0492,-0.0446,0.155
15.131000,0.1633,-0.0881,-0.0492,0.192
15.131000,0.1834,-0.0614,-0.0742,0.207
15.135000,0.1558,-0.0539,-0.0600,0.175
15.140000,0.1380,-0.0596,-0.0450,0.157
15.145000,0.1451,-0.0711,-0.0720,0.177
15.163000,0.1013,-0.0589,-0.0135,0.118
15.165000,0.0852,-0.0824,0.0230,0.121
15.166000,0.0740,-0.0736,0.0091,0.105
15.166000,0.0189,-0.0649,0.0512,0.085
15.171000,0.0011,-0.0694,0.0609,0.092
15.176000,-0.0035,-0.0666,0.0470,0.082
15.182000,-0.0189,-0.0295,0.0664,0.075
15.186000,-0.0234,-0.0081,0.0526,0.058
15.191000,-0.0184,0.0049,0.0389,0.043
15.198000,-0.0493,0.0058,0.0277,0.057
15.201000,-0.0691,0.0222,0.0403,0.083
15.206000,-0.0473,0.0029,0.0335,0.058
15.211000,-0.0352,0.0205,0.0576,0.071
15.216000,-0.0172,0.0106,0.0614,0.065
15.221000,-0.0327,0.0068,0.0402,0.052
15.226000,0.0005,0.0101,0.0513,0.052
15.243000,-0.0045,-0.0281,0.0314,0.042
15.244000,0.0153,-0.0268,0.0071,0.032
15.245000,0.0706,-0.0137,0.0092,0.072
15.246000,0.0365,-0.0089,0.0018,0.038
15.275000,0.0478,-0.0327,0.0289,0.065
15.276000,0.0496,-0.0350,0.0692,0.092
15.277000,0.0776,-0.0704,0.1355,0.171
15.278000,0.0984,-0.0533,0.1921,0.222
15.278000,0.1108,-0.0720,0.2332,0.268
15.279000,0.0805,-0.1273,0.2197,0.266
15.289000,0.0670,-0.1228,0.1294,0.191
15.290000,0.0715,-0.1052,0.0363,0.132
15.292000,0.0499,-0.0748,-0.0797,0.120
15.302000,0.0153,0.0005,-0.1479,0.149
15.303000,-0.0287,-0.0198,-0.1648,0.168
15.307000,-0.1330,0.0147,-0.2035,0.244
15.312000,-0.1333,0.0453,-0.2150,0.257
15.317000,-0.1350,0.0756,-0.2113,0.262
15.322000,-0.1212,0.0641,-0.1295,0.189
15.327000,-0.1097,0.0029,-0.0616,0.126
15.343000,-0.0529,-0.0520,-0.0074,0.075
15.344000,-0.0237,-0.0708,0.0195,0.077
15.345000,0.0151,-0.0396,0.0499,0.065
15.349000,0.0702,-0.0847,0.1278,0.169
15.354000,0.0727,-0.0843,0.1115,0.158
15.357000,0.0230,-0.0517,0.0848,0.102
15.362000,0.0282,-0.0694,0.0193,0.077
15.369000,0.0226,-0.0227,-0.0315,0.045
15.372000,0.0323,0.0224,-0.0428,0.058
15.378000,0.0229,0.0243,-0.0685,0.076
15.383000,0.0074,0.0797,-0.0892,0.120
15.388000,-0.0081,0.0872,-0.0898,0.125
15.393000,-0.0043,0.0780,-0.0740,0.108
15.398000,-0.0280,0.0724,-0.0774,0.110
15.403000,-0.0289,0.0882,-0.0675,0.115
15.408000,-0.0390,0.0848,-0.0388,0.101
15.413000,-0.0383,0.0673,-0.0173,0.079
15.418000,-0.0091,0.0617,-0.0374,0.073
15.423000,0.0047,0.0728,-0.0464,0.086
15.428000,0.0361,0.0423,-0.0444,0.071
15.433000,0.0448,0.0085,-0.0613,0.076
15.439000,0.0582,0.0070,-0.0363,0.069
15.444000,0.0871,0.0019,-0.0684,0.111
15.463000,0.1110,-0.0411,-0.0256,0.121
15.464000,0.1168,-0.0327,-0.0436,0.129
15.465000,0.1141,-0.0409,-0.0663,0.138
15.465000,0.1352,-0.0254,-0.0141,0.138
15.469000,0.1444,-0.0409,-0.0468,0.157
15.474000,0.1390,-0.0503,-0.0177,0.149
15.479000,0.1255,-0.0264,-0.0197,0.130
15.498000,0.1109,-0.0407,-0.0407,0.125
15.499000,0.1000,-0.0572,-0.0332,0.120
15.500000,0.0917,-0.0606,-0.0247,0.113
15.501000,0.0656,-0.0450,-0.0246,0.083
15.504000,0.0585,-0.0342,-0.0530,0.086
15.509000,0.0575,-0.0318,-0.0421,0.078
15.516000,0.0066,-0.0176,-0.0741,0.076
15.520000,0.0024,-0.0403,-0.0846,0.094
15.524000,-0.0137,-0.0426,-0.1391,0.146
15.530000,-0.0249,-0.0129,-0.0875,0.092
15.536000,-0.0147,0.0012,-0.0827,0.084
15.540000,-0.0436,-0.0157,-0.0601,0.076
15.545000,-0.0058,-0.0088,-0.0756,0.076
15.561000,-0.0157,-0.0244,-0.0137,0.032
15.562000,0.0146,-0.0126,-0.0292,0.035
15.562000,0.0542,0.0015,-0.0351,0.065
15.586000,0.0591,-0.0368,-0.0418,0.081
15.587000,0.0581,-0.0296,0.0360,0.074
15.588000,0.0867,-0.0652,0.0337,0.114
15.588000,0.0950,-0.0685,0.0385,0.123
15.589000,0.0747,-0.0586,0.0803,0.124
15.590000,0.0581,-0.0453,0.0504,0.089
15.596000,0.0214,-0.0428,0.0288,0.056
15.600000,0.0206,-0.0392,-0.0000,0.044
15.605000,-0.0467,-0.0272,-0.0085,0.055
15.611000,-0.0577,0.0060,0.0126,0.059
15.617000,-0.0877,0.0294,-0.0341,0.099
15.620000,-0.0819,0.0076,-0.0307,0.088
15.625000,-0.1215,-0.0022,0.0215,0.123
15.630000,-0.0981,-0.0284,0.0059,0.102
15.636000,-0.0930,-0.0140,0.0310,0.099
15.641000,-0.0467,-0.0139,0.0017,0.049
15.646000,-0.0447,0.0028,0.0050,0.045
15.651000,-0.0664,-0.0221,0.0157,0.072
15.656000,-0.0287,-0.0040,0.0586,0.065
15.661000,-0.0210,-0.0205,0.0609,0.068
15.681000,-0.0133,-0.0215,0.0916,0.095
15.683000,0.0144,-0.0106,0.0355,0.040
15.684000,0.0264,0.0157,0.0154,0.034
15.685000,0.0526,0.0228,-0.0022,0.057
15.688000,0.0738,0.0227,-0.0020,0.077
15.691000,0.0699,0.0451,-0.0564,0.101
15.696000,0.0792,0.0353,-0.0346,0.093
15.731000,0.0768,0.0255,-0.0392,0.090
15.732000,0.0613,0.0051,-0.0486,0.078
15.732000,0.0921,-0.0045,-0.0830,0.124
15.733000,0.1134,0.0157,-0.0886,0.145
15.734000,0.1346,0.0298,-0.0860,0.163
15.734000,0.1343,-0.0097,-0.1039,0.170
15.735000,0.1294,0.0069,-0.1170,0.175
15.737000,0.1494,0.0138,-0.1228,0.194
15.742000,0.1018,0.0195,-0.1323,0.168
15.747000,0.0927,0.0334,-0.1597,0.188
15.752000,0.0635,0.0425,-0.1858,0.201
15.757000,0.0155,0.0407,-0.1975,0.202
15.762000,-0.0224,0.0390,-0.1769,0.183
15.767000,-0.0697,0.0516,-0.1956,0.214
15.772000,-0.1154,0.0415,-0.1605,0.202
15.777000,-0.1096,0.0172,-0.1412,0.180
15.783000,-0.1714,0.0205,-0.1552,0.232
15.788000,-0.2134,0.0272,-0.1083,0.241
15.792000,-0.2204,0.0184,-0.0548,0.228
15.798000,-0.2272,0.0501,-0.0454,0.237
15.814000,-0.2388,0.0292,-0.0111,0.241
15.816000,-0.2323,-0.0164,0.0264,0.234
15.816000,-0.1867,-0.0284,0.0425,0.194
15.819000,-0.1472,-0.0415,0.0121,0.153
15.823000,-0.1117,-0.0378,0.0438,0.126
15.828000,-0.0754,-0.0627,0.0801,0.127
15.851000,-0.0109,-0.0434,0.1021,0.111
15.852000,0.0139,-0.0516,0.1229,0.134
15.853000,0.0619,-0.0846,0.0831,0.134
15.854000,0.0787,-0.0472,0.0438,0.102
15.854000,0.1426,-0.0434,0.0346,0.153
15.859000,0.1677,-0.0288,-0.0221,0.172
15.864000,0.1475,-0.0500,-0.0535,0.165
15.869000,0.1842,-0.0414,-0.0850,0.207
15.873000,0.1780,-0.0115,-0.1439,0.229
15.879000,0.1385,0.0004,-0.1421,0.198
15.896000,0.1479,-0.0105,-0.1525,0.213
15.898000,0.1168,-0.0295,-0.1443,0.188
15.898000,0.0863,-0.0235,-0.1329,0.160
15.900000,0.0643,-0.0069,-0.0896,0.111
15.903000,0.0390,-0.0273,-0.0479,0.068
15.908000,0.0270,-0.0226,0.0161,0.039
15.914000,0.0152,0.0130,0.0263,0.033
15.922000,-0.0084,0.0127,-0.0133,0.020
15.923000,-0.0116,0.0159,0.0034,0.020
15.929000,-0.0395,0.0156,0.0082,0.043
15.934000,-0.0316,0.0354,0.0311,0.057
15.939000,-0.0393,0.0658,0.0681,0.103
