time,ax,ay,az,aT
0.003000,0.1498,-0.0467,0.1737,0.234
0.004000,0.1313,-0.0218,0.2603,0.292
0.004000,0.0866,-0.0246,0.2907,0.304
0.005000,0.0884,-0.0383,0.3069,0.322
0.009000,0.1338,-0.0379,0.2887,0.320
0.015000,0.1645,-0.0164,0.2507,0.300
0.019000,0.2022,-0.0532,0.1800,0.276
0.024000,0.2255,-0.0578,0.1135,0.259
0.031000,0.1883,-0.0360,0.0321,0.194
0.034000,0.2017,-0.0357,-0.0833,0.221
0.039000,0.1904,-0.0646,-0.1934,0.279
0.053000,0.1913,-0.0417,-0.2273,0.300
0.054000,0.2256,-0.0492,-0.2818,0.364
0.055000,0.2075,-0.0562,-0.3234,0.388
0.059000,0.2217,-0.0922,-0.3511,0.425
0.066000,0.2048,-0.0872,-0.3531,0.417
0.069000,0.2092,-0.0984,-0.3448,0.415
0.074000,0.1876,-0.1732,-0.3404,0.426
0.088000,0.1480,-0.1185,-0.3688,0.415
0.089000,0.1205,-0.1210,-0.4166,0.450
0.090000,0.1326,-0.1173,-0.3509,0.393
0.117000,0.1314,-0.1159,-0.2735,0.325
0.118000,0.1349,-0.1503,-0.1401,0.246
0.118000,0.1456,-0.1539,-0.0184,0.213
0.119000,0.1503,-0.1411,0.0749,0.219
0.119000,0.1537,-0.1262,0.0584,0.207
0.120000,0.0960,-0.1318,0.1055,0.194
0.125000,0.0955,-0.1256,0.0940,0.184
0.130000,0.0717,-0.0667,0.0561,0.113
0.135000,0.0787,-0.0986,0.0420,0.133
0.140000,0.1176,-0.0789,0.0539,0.152
0.146000,0.1167,-0.0554,0.0176,0.130
0.151000,0.1407,-0.0532,-0.0105,0.151
0.155000,0.1880,-0.1141,-0.0379,0.223
0.172000,0.2301,-0.2066,-0.0804,0.320
0.173000,0.2518,-0.2102,0.0046,0.328
0.173000,0.2606,-0.1775,0.0450,0.319
0.175000,0.2125,-0.1116,0.0712,0.250
0.195000,0.2091,-0.0817,0.0940,0.243
0.196000,0.1918,-0.0905,0.1711,0.272
0.197000,0.1733,-0.0901,0.2390,0.309
0.197000,0.1430,-0.0915,0.2275,0.284
0.201000,0.1979,-0.0943,0.1673,0.276
0.206000,0.2709,-0.1319,0.1396,0.332
0.212000,0.2649,-0.1347,0.1323,0.325
0.216000,0.2721,-0.1255,0.0842,0.311
0.221000,0.2254,-0.0600,0.0300,0.235
0.226000,0.2205,-0.0350,-0.0029,0.223
0.232000,0.2046,-0.0492,-0.0397,0.214
0.236000,0.1753,-0.0522,-0.0184,0.184
0.242000,0.1686,-0.0250,-0.0167,0.171
0.247000,0.1713,0.0152,0.0133,0.173
0.251000,0.1618,0.0493,0.0974,0.195
0.257000,0.1282,0.0560,0.0571,0.151
0.262000,0.0957,0.0164,0.0027,0.097
0.267000,0.1057,0.0212,-0.0241,0.110
0.272000,0.0548,0.0488,-0.0713,0.102
0.277000,0.0791,0.0481,-0.0734,0.118
0.282000,0.0498,0.0593,-0.0210,0.080
0.287000,0.0257,0.0610,0.0464,0.081
0.292000,0.0777,0.0639,0.0788,0.128
0.310000,0.0858,0.0156,0.0588,0.105
0.311000,0.0583,-0.0242,0.1046,0.122
0.312000,0.0645,-0.0577,0.0860,0.122
0.316000,0.0497,-0.0744,0.0213,0.092
0.321000,0.0433,-0.0660,-0.0618,0.100
0.323000,0.0862,-0.1027,-0.1490,0.200
0.347000,0.1246,-0.0963,-0.1678,0.230
0.348000,0.1062,-0.0781,-0.1543,0.203
0.349000,0.0897,-0.0650,-0.1561,0.191
0.349000,0.0811,-0.0687,-0.1649,0.196
0.350000,0.0068,-0.0952,-0.0806,0.125
0.353000,0.0546,-0.0943,0.0389,0.116
0.358000,0.0679,-0.1069,0.1615,0.205
0.363000,0.0196,-0.1152,0.2291,0.257
0.368000,-0.0306,-0.0526,0.2302,0.238
0.374000,-0.0474,-0.0300,0.2198,0.227
0.379000,-0.0476,-0.0483,0.1659,0.179
0.383000,-0.0244,-0.0523,0.1815,0.190
0.388000,0.0171,-0.0481,0.1518,0.160
0.394000,-0.0013,-0.0426,0.1378,0.144
0.398000,0.0171,-0.0454,0.1368,0.145
0.404000,0.0232,-0.0565,0.1037,0.120
0.409000,0.0111,-0.0234,0.0540,0.060
0.432000,0.0596,0.0145,0.0187,0.064
0.434000,0.0756,0.0273,0.0130,0.081
0.435000,0.0963,0.0283,0.0143,0.101
0.436000,0.0220,0.0593,-0.0049,0.063
0.437000,-0.0112,0.1210,-0.0122,0.122
0.473000,-0.0874,0.1433,0.0538,0.176
0.475000,-0.1315,0.1371,0.1878,0.267
0.477000,-0.1217,0.1276,0.2753,0.327
0.478000,-0.1876,0.1480,0.3226,0.401
0.478000,-0.2258,0.1599,0.4583,0.535
0.480000,-0.2701,0.1602,0.4086,0.515
0.480000,-0.2636,0.2165,0.1651,0.379
0.481000,-0.1540,0.2587,-0.1043,0.319
0.482000,-0.1138,0.3797,-0.2063,0.447
0.500000,-0.1044,0.4780,-0.2267,0.539
0.501000,-0.1203,0.5195,-0.2613,0.594
0.502000,-0.0265,0.4643,-0.2515,0.529
0.502000,0.1153,0.3704,0.2923,0.486
0.505000,-0.1313,0.2677,1.0824,1.123
0.509000,-0.5680,0.2318,0.6404,0.887
0.524000,-0.8155,0.3017,0.3958,0.955
0.525000,-0.7342,0.3102,0.2811,0.845
0.526000,-0.0642,0.0602,0.4071,0.417
0.549000,0.5285,-0.2714,0.1930,0.625
0.550000,0.2597,-0.2555,-0.4610,0.588
0.551000,0.7199,-0.8683,-0.6327,1.293
0.551000,1.1225,-1.0257,-0.6204,1.642
0.552000,1.0519,-0.5671,-0.4814,1.288
0.555000,0.9778,-0.2947,-0.3280,1.073
0.560000,0.9563,-0.2928,-0.1902,1.018
0.565000,0.7696,-0.3328,-0.0906,0.843
0.570000,0.5516,-0.3278,0.1100,0.651
0.575000,0.4210,-0.3617,0.2549,0.611
0.581000,0.4022,-0.4286,0.2942,0.657
0.586000,0.4883,-0.4472,0.3427,0.746
0.590000,0.6065,-0.4415,0.3611,0.833
0.596000,0.6863,-0.4305,0.3636,0.888
0.601000,0.7012,-0.4248,0.2734,0.864
0.606000,0.7252,-0.3832,0.1523,0.834
0.611000,0.6856,-0.3094,0.1198,0.762
0.616000,0.6541,-0.2785,0.1385,0.724
0.621000,0.6448,-0.2891,0.1868,0.731
0.626000,0.6518,-0.3234,0.2049,0.756
0.641000,0.6488,-0.2906,0.1774,0.733
0.642000,0.6373,-0.2769,0.2037,0.724
0.642000,0.5742,-0.2347,0.3379,0.706
0.667000,0.4748,-0.1739,0.4030,0.647
0.668000,0.4042,-0.0720,0.4868,0.637
0.668000,0.3135,-0.0202,0.5166,0.605
0.669000,0.2400,-0.0234,0.5488,0.599
0.670000,0.1492,-0.0222,0.5957,0.614
0.672000,0.0397,-0.0226,0.5560,0.558
0.677000,-0.0249,0.0171,0.5446,0.545
0.682000,-0.0806,0.0048,0.5113,0.518
0.687000,-0.1345,0.0639,0.4438,0.468
0.692000,-0.1668,0.0703,0.3371,0.383
0.698000,-0.2136,0.0902,0.2088,0.312
0.702000,-0.2534,0.0641,0.1171,0.286
0.707000,-0.2351,0.0679,0.0196,0.246
0.724000,-0.2759,0.0971,-0.0852,0.305
0.725000,-0.2865,0.0898,-0.1942,0.358
0.725000,-0.3254,0.1205,-0.2694,0.439
0.726000,-0.3617,0.1379,-0.3589,0.528
0.753000,-0.3726,0.1471,-0.4404,0.595
0.754000,-0.3069,0.1156,-0.4645,0.569
0.755000,-0.2230,0.0928,-0.3909,0.460
0.755000,-0.1720,0.0891,-0.3476,0.398
0.756000,-0.1143,0.0469,-0.2970,0.322
0.758000,-0.0780,-0.0222,-0.1729,0.191
0.765000,-0.0499,-0.0133,-0.1293,0.139
0.768000,-0.0611,-0.0462,-0.0775,0.109
0.773000,-0.0803,-0.0614,-0.0098,0.102
0.777000,-0.0764,-0.0436,0.0607,0.107
0.782000,-0.1569,-0.0098,0.0674,0.171
0.788000,-0.1844,0.0088,0.0989,0.209
0.793000,-0.2070,-0.0260,0.1385,0.250
0.798000,-0.1752,-0.0368,0.1290,0.221
0.803000,-0.1254,-0.0246,0.1577,0.203
0.808000,-0.1223,-0.0716,0.1250,0.189
0.813000,-0.1095,-0.1323,0.1312,0.216
0.818000,-0.0847,-0.1037,0.0804,0.156
0.823000,-0.0491,-0.1362,-0.0251,0.147
0.828000,-0.0565,-0.1364,-0.1029,0.180
0.834000,-0.0577,-0.1270,-0.1497,0.205
0.838000,-0.0554,-0.1280,-0.1907,0.236
0.844000,-0.0544,-0.1191,-0.2417,0.275
0.861000,-0.0463,-0.1191,-0.2444,0.276
0.862000,-0.0764,-0.0767,-0.2799,0.300
0.863000,-0.1090,-0.0661,-0.2909,0.318
0.865000,-0.1150,-0.0551,-0.2474,0.278
0.869000,-0.1066,-0.0737,-0.1983,0.237
0.874000,-0.0586,-0.1373,-0.1713,0.227
0.900000,-0.0461,-0.1121,-0.1265,0.175
0.901000,-0.0756,-0.0797,-0.0903,0.142
0.902000,-0.0270,-0.0820,-0.0973,0.130
0.903000,0.0087,-0.1322,-0.0743,0.152
0.903000,-0.0296,-0.1763,-0.0584,0.188
0.904000,-0.0949,-0.1319,-0.1071,0.195
0.910000,-0.1754,-0.0649,-0.1485,0.239
0.916000,-0.2127,-0.0196,-0.1933,0.288
0.920000,-0.2331,-0.0304,-0.1617,0.285
0.925000,-0.2596,-0.0234,-0.2113,0.336
0.943000,-0.2202,-0.0188,-0.2131,0.307
0.945000,-0.1509,-0.0485,-0.0920,0.183
0.945000,-0.0836,-0.0991,0.0166,0.131
0.946000,-0.0671,-0.1636,0.0876,0.197
0.969000,-0.0581,-0.1623,0.1509,0.229
0.970000,-0.0611,-0.1376,0.2627,0.303
0.971000,-0.1285,-0.1266,0.3254,0.372
0.971000,-0.1754,-0.1554,0.3289,0.404
0.971000,-0.1712,-0.1051,0.2559,0.325
0.975000,-0.1266,-0.0984,0.1769,0.239
0.981000,-0.1431,-0.0575,0.0751,0.172
0.985000,-0.1464,-0.0492,-0.0150,0.155
0.990000,-0.1139,-0.0444,-0.0404,0.129
0.995000,-0.1530,-0.0442,-0.0657,0.172
1.000000,-0.1431,-0.0428,-0.0754,0.167
1.006000,-0.1131,-0.0067,-0.0843,0.141
1.010000,-0.0681,-0.0216,-0.1219,0.141
1.015000,-0.0307,-0.0657,-0.1405,0.158
1.021000,0.0050,-0.1138,-0.1631,0.199
1.026000,0.0524,-0.1528,-0.1598,0.227
1.031000,0.1138,-0.1734,-0.0762,0.221
1.036000,0.0821,-0.1604,-0.1003,0.206
1.041000,0.0744,-0.1391,-0.1398,0.211
1.045000,0.0265,-0.1238,-0.1540,0.199
1.051000,0.0528,-0.1205,-0.1788,0.222
1.056000,0.0662,-0.1149,-0.1406,0.193
1.061000,0.0750,-0.0581,-0.1573,0.184
1.078000,0.0757,-0.0980,-0.1467,0.192
1.079000,0.1227,-0.0995,-0.1314,0.206
1.080000,0.1064,-0.0914,-0.0605,0.153
1.081000,0.1400,-0.0693,0.0313,0.159
1.086000,0.1468,-0.1008,0.0392,0.182
1.091000,0.1700,-0.1368,0.0150,0.219
1.113000,0.1533,-0.1452,0.0385,0.215
1.114000,0.1660,-0.1915,0.0381,0.256
1.115000,0.2059,-0.2031,0.0010,0.289
1.116000,0.2064,-0.2158,-0.0513,0.303
1.117000,0.2474,-0.2082,-0.0627,0.329
1.122000,0.2622,-0.2174,-0.0253,0.342
1.127000,0.2581,-0.1838,-0.0142,0.317
1.133000,0.2328,-0.1375,-0.0376,0.273
1.137000,0.2246,-0.1178,-0.0784,0.265
1.142000,0.1728,-0.0769,-0.1380,0.234
1.164000,0.1833,-0.0634,-0.1841,0.267
1.165000,0.1701,-0.0500,-0.1754,0.249
1.166000,0.1878,-0.0921,-0.1922,0.284
1.167000,0.2077,-0.1360,-0.1912,0.313
1.169000,0.1918,-0.1591,-0.2047,0.323
1.172000,0.1179,-0.1141,-0.2269,0.280
1.177000,0.0741,-0.0915,-0.1782,0.214
1.204000,0.0293,-0.0805,-0.0996,0.131
1.205000,-0.0229,-0.0895,0.0184,0.094
1.206000,-0.0063,-0.0876,0.0118,0.089
1.207000,0.0239,-0.0643,0.0372,0.078
1.207000,0.0947,-0.0590,0.0778,0.136
1.208000,0.1143,-0.0334,0.1047,0.159
1.219000,0.1309,-0.0043,0.1432,0.194
1.220000,0.2920,-0.1560,0.2990,0.446
1.223000,0.5136,-0.2530,0.7944,0.979
1.228000,0.4606,-0.1783,1.2120,1.309
1.233000,0.3130,-0.1402,0.9953,1.053
1.238000,0.3259,-0.1733,0.4248,0.563
1.243000,0.5049,-0.1936,0.0528,0.543
1.250000,0.5799,-0.1156,0.0587,0.594
1.254000,0.5578,-0.0408,0.1169,0.571
1.258000,0.5651,-0.0292,0.1435,0.584
1.278000,0.4969,-0.0709,0.1910,0.537
1.279000,0.4117,-0.0867,0.2005,0.466
1.280000,0.3533,-0.0571,0.2386,0.430
1.281000,0.3682,-0.0146,0.3532,0.510
1.285000,0.3482,-0.0013,0.3231,0.475
1.289000,0.3129,0.0236,0.3041,0.437
1.294000,0.2897,0.0179,0.3346,0.443
1.314000,0.2848,0.0103,0.3417,0.445
1.315000,0.2623,-0.0112,0.3113,0.407
1.316000,0.1171,0.0130,0.2231,0.252
1.316000,-0.7164,0.2505,-0.2768,0.808
1.319000,-1.6652,0.5522,-0.3161,1.783
1.324000,-1.6025,0.9425,1.1182,2.169
1.330000,-0.9165,0.9301,1.0484,1.675
1.334000,-0.5194,0.6751,-0.1558,0.866
1.340000,-0.3794,0.4837,-0.3876,0.727
1.345000,-0.2154,0.2235,-0.0339,0.312
1.349000,-0.0675,0.0358,0.3237,0.333
1.355000,-0.1045,-0.0289,0.4483,0.461
1.359000,-0.1234,-0.0404,0.4564,0.475
1.365000,0.0936,-0.0527,0.4439,0.457
1.370000,0.4361,-0.0360,0.5870,0.732
1.375000,0.5618,-0.1368,0.4065,0.707
1.381000,0.4528,-0.1654,0.1973,0.521
1.385000,0.3414,-0.1916,-0.1382,0.415
1.390000,0.2159,-0.1502,-0.1691,0.313
1.395000,0.0925,-0.0198,-0.0931,0.133
1.412000,0.0087,0.0510,0.0554,0.076
1.414000,0.0502,0.1205,0.2337,0.268
1.415000,0.0890,0.0486,0.4718,0.483
1.415000,0.1030,-0.0235,0.6730,0.681
1.421000,0.1966,-0.1380,0.9094,0.941
1.425000,0.1159,-0.1348,1.2577,1.270
1.451000,-0.0752,-0.0957,1.5628,1.568
1.452000,-0.1605,-0.0617,1.6267,1.636
1.452000,-0.2179,0.2079,1.5642,1.593
1.453000,-0.4518,0.5242,1.6678,1.806
1.454000,-0.6431,0.7332,1.6860,1.948
1.456000,-0.7846,0.9682,1.5338,1.976
1.461000,-0.8792,1.3026,1.4677,2.150
1.466000,-1.0553,1.5895,1.1920,2.250
1.471000,-1.2476,1.7082,1.2475,2.456
1.476000,-1.5327,1.5877,1.5852,2.717
1.496000,-1.4638,1.2571,1.5896,2.500
1.501000,-1.1426,0.7700,1.4192,1.978
1.501000,-0.8803,0.3824,1.2441,1.571
1.502000,-0.6390,0.0987,1.2303,1.390
1.502000,-0.2943,0.0063,1.4961,1.525
1.506000,0.2410,-0.0678,1.6112,1.631
1.511000,0.7260,-0.1648,1.7030,1.859
1.525000,1.0995,-0.1528,1.8587,2.165
1.526000,1.2997,-0.1972,2.0824,2.463
1.527000,1.3454,-0.1790,2.4504,2.801
1.537000,1.2599,0.0583,2.8612,3.127
1.539000,1.3362,-0.3262,2.1554,2.557
1.542000,1.2970,-0.5382,1.9095,2.370
1.549000,0.8816,-0.5478,1.8239,2.099
1.552000,0.4246,-0.7028,1.8817,2.053
1.557000,0.1470,-0.5868,2.0832,2.169
1.562000,-0.0089,-0.4368,2.4547,2.493
1.567000,-0.1416,-0.2283,2.6608,2.674
1.572000,-0.2538,0.6318,2.5861,2.674
1.578000,-0.1913,1.6439,2.9765,3.406
1.584000,-0.4030,1.6701,1.5596,2.320
1.589000,-0.2997,2.1541,0.8520,2.336
1.592000,0.3802,4.3198,1.5341,4.600
1.599000,-0.1202,3.7192,-0.7761,3.801
1.603000,-0.1695,2.5907,-1.6766,3.091
1.607000,-0.0201,2.2172,-0.8461,2.373
1.614000,0.3056,1.9843,0.3333,2.035
1.631000,0.5574,1.5552,0.6634,1.780
1.634000,0.6564,0.9555,0.0100,1.159
1.634000,0.6483,0.4962,-0.1532,0.831
1.641000,0.7807,0.3209,0.2965,0.895
1.642000,0.9942,0.2509,0.7369,1.263
1.642000,1.1744,0.2356,0.7107,1.393
1.666000,1.2048,0.2095,0.5306,1.333
1.667000,1.0553,0.3828,0.6352,1.290
1.668000,0.8340,0.7088,0.6087,1.252
1.668000,0.5484,1.1326,0.3471,1.305
1.669000,0.3887,1.3661,0.0954,1.424
1.674000,0.4141,1.4279,0.2712,1.511
1.679000,0.4898,1.3596,0.6398,1.580
1.690000,0.4595,1.2055,0.8128,1.525
1.691000,0.3143,1.0708,0.7945,1.370
1.694000,0.1336,0.9450,0.8213,1.259
1.701000,-0.0572,0.8138,0.8975,1.213
1.704000,-0.2976,0.6315,0.5693,0.901
1.709000,-0.4480,0.3687,0.3392,0.672
1.726000,-0.4141,0.1447,0.5658,0.716
1.727000,-0.4045,-0.0814,0.8498,0.945
1.727000,-0.3581,-0.4155,0.6379,0.841
1.729000,-0.3054,-0.7102,0.3137,0.834
1.750000,-0.3341,-0.8568,0.5416,1.067
1.751000,-0.3162,-1.0426,0.7289,1.311
1.752000,-0.3418,-1.1421,0.7156,1.390
1.752000,-0.4116,-1.1671,0.7095,1.426
1.755000,-0.4919,-1.1058,0.6096,1.355
1.760000,-0.5259,-1.1505,0.7780,1.485
1.766000,-0.3292,-1.3755,0.9759,1.718
1.769000,-0.1141,-1.7110,0.9548,1.963
1.775000,0.0161,-1.8448,0.9707,2.085
1.780000,0.0302,-1.8438,1.1905,2.195
1.785000,0.1278,-1.7969,1.1870,2.157
1.790000,0.2218,-1.8499,1.1036,2.166
1.795000,0.3385,-1.9513,1.2108,2.321
1.802000,0.4438,-2.1368,1.2878,2.534
1.805000,0.5889,-2.2580,1.1193,2.588
1.810000,0.5703,-2.2157,0.9423,2.474
1.825000,0.3923,-2.0721,0.8793,2.285
1.827000,0.2862,-1.9122,0.8341,2.106
1.828000,0.2687,-1.7658,0.8713,1.987
1.831000,0.2720,-1.6246,0.8336,1.846
1.850000,0.3506,-1.6201,0.6557,1.783
1.851000,0.4206,-1.6266,0.5951,1.782
1.852000,0.5117,-1.5809,0.6824,1.796
1.852000,0.5700,-1.5714,0.6586,1.797
1.856000,0.5689,-1.4930,0.4735,1.666
1.861000,0.5775,-1.4450,0.2933,1.584
1.866000,0.5581,-1.3726,0.2677,1.506
1.870000,0.6256,-1.2794,0.4312,1.488
1.876000,0.7294,-1.2039,0.6149,1.536
1.881000,0.6398,-1.1701,0.6326,1.476
1.886000,0.4091,-1.1683,0.2997,1.274
1.891000,0.1777,-1.3064,-0.0520,1.319
1.896000,0.0647,-1.4824,-0.0490,1.485
1.901000,0.1128,-1.7002,0.0872,1.706
1.906000,0.1819,-1.9440,0.2617,1.970
1.911000,0.1977,-2.2056,0.3075,2.236
1.916000,0.0787,-2.4908,0.2980,2.510
1.922000,0.0079,-2.7649,0.1405,2.768
1.926000,-0.0263,-2.9906,-0.1685,2.995
1.945000,-0.1541,-3.0507,-0.3163,3.071
1.948000,-0.3245,-3.0292,-0.4429,3.079
1.949000,-0.3932,-3.0467,-0.7822,3.170
1.951000,-0.4512,-3.0483,-0.9163,3.215
1.985000,-0.4573,-2.9229,-0.8748,3.085
1.986000,-0.4823,-2.7171,-0.8974,2.902
1.987000,-0.5811,-2.5877,-1.0545,2.854
1.988000,-0.6405,-2.6208,-1.4899,3.082
1.989000,-0.5839,-2.6835,-1.7793,3.272
1.991000,-0.4525,-2.7099,-1.7470,3.256
1.992000,-0.3647,-2.5674,-1.5424,3.017
1.993000,-0.3331,-2.3652,-1.4376,2.788
1.994000,-0.4302,-2.0747,-1.4442,2.564
1.997000,-0.5470,-1.8551,-1.5238,2.462
2.002000,-0.6338,-1.7340,-1.6200,2.456
2.008000,-0.5683,-1.7748,-1.9103,2.669
2.012000,-0.3994,-1.8096,-2.0049,2.730
2.017000,-0.2226,-1.7144,-1.7653,2.471
2.023000,-0.0633,-1.6170,-1.5526,2.243
2.028000,0.0375,-1.5548,-1.7809,2.364
2.046000,0.1214,-1.5407,-1.8964,2.446
2.048000,0.2564,-1.5677,-1.7629,2.373
2.050000,0.5196,-1.5866,-1.6443,2.343
2.052000,0.6649,-1.5077,-1.6405,2.325
2.052000,0.6821,-1.3048,-1.7120,2.258
2.081000,0.6946,-1.0796,-1.8178,2.225
2.082000,0.7134,-0.9265,-1.7377,2.095
2.083000,0.7401,-0.8109,-1.6663,1.996
2.084000,0.7109,-0.6035,-1.6470,1.893
2.085000,0.6148,-0.3703,-1.7254,1.869
2.085000,0.4560,-0.2021,-1.7866,1.855
2.089000,0.3428,-0.0488,-1.8358,1.868
2.093000,0.2472,-0.0372,-1.8185,1.836
2.100000,0.2307,-0.0548,-1.7453,1.761
2.103000,0.2824,-0.0967,-1.6285,1.656
2.109000,0.3021,-0.1867,-1.5760,1.616
2.114000,0.3642,-0.3666,-1.6113,1.692
2.119000,0.4346,-0.5573,-1.4774,1.638
2.124000,0.4218,-0.7741,-1.2495,1.529
2.129000,0.5011,-1.0337,-1.1431,1.621
2.134000,0.5448,-1.3037,-1.0848,1.781
2.139000,0.4900,-1.5015,-1.0854,1.916
2.144000,0.3924,-1.7359,-1.0087,2.046
2.161000,0.2973,-1.9854,-1.1030,2.291
2.162000,0.2037,-2.1697,-1.3109,2.543
2.163000,0.2225,-2.3513,-1.2709,2.682
2.165000,0.2941,-2.5085,-1.0515,2.736
2.188000,0.4160,-2.6712,-0.8463,2.833
2.190000,0.5848,-2.8023,-0.8096,2.975
2.191000,0.6894,-2.8563,-0.7145,3.024
2.192000,0.7261,-2.9266,-0.7668,3.111
2.193000,0.8268,-2.9427,-0.8832,3.182
2.194000,0.8257,-2.7898,-0.6974,2.992
2.200000,0.8406,-2.5147,-0.6497,2.730
2.205000,0.7259,-2.1928,-0.8843,2.473
2.210000,0.4401,-1.7392,-1.1867,2.151
2.215000,0.1074,-1.2067,-1.6086,2.014
2.220000,-0.1242,-0.7030,-1.6016,1.753
2.225000,-0.1229,-0.3462,-1.3501,1.399
2.230000,-0.0812,-0.0715,-1.1354,1.141
2.235000,-0.1944,0.0581,-1.1617,1.179
2.240000,-0.3456,-0.1640,-1.2986,1.354
2.245000,-0.3775,-0.3607,-1.4760,1.566
2.263000,-0.1940,-0.3467,-1.4696,1.522
2.264000,-0.0056,-0.1835,-1.2683,1.282
2.265000,0.0580,0.0926,-1.2163,1.221
2.299000,0.1538,0.2648,-1.0350,1.079
2.300000,0.2875,0.2494,-1.0058,1.075
2.301000,0.4901,0.2424,-0.9908,1.132
2.302000,0.7556,0.2398,-0.8031,1.128
2.302000,1.0122,0.1450,-0.5211,1.148
2.303000,1.1044,0.1407,-0.3613,1.170
2.303000,1.1243,0.2569,-0.4048,1.222
2.304000,1.0956,0.2387,-0.2945,1.159
2.306000,1.0705,-0.0824,-0.2583,1.104
2.312000,1.0450,-0.5159,-0.3578,1.219
2.318000,0.9783,-0.8490,-0.3898,1.353
2.321000,0.9193,-1.1296,0.0397,1.457
2.326000,0.8413,-1.3004,0.1449,1.556
2.331000,0.7219,-1.3479,0.0504,1.530
2.336000,0.6563,-1.3633,0.1638,1.522
2.341000,0.6122,-1.4325,0.1531,1.565
2.346000,0.7978,-1.3867,0.3724,1.643
2.352000,0.9717,-1.3141,0.3245,1.666
2.357000,0.9922,-1.1942,0.2205,1.568
2.362000,0.9354,-1.0426,0.5110,1.491
2.381000,0.9662,-1.0267,0.4473,1.479
2.382000,0.9761,-0.8412,0.3423,1.333
2.383000,0.8605,-0.5869,0.4195,1.123
2.384000,0.8325,-0.3332,0.4894,1.022
2.414000,0.7195,-0.0189,0.5859,0.928
2.415000,0.4842,0.2946,0.4193,0.705
2.416000,0.2869,0.4244,-0.0334,0.513
2.417000,0.1856,0.5307,-0.3374,0.656
2.418000,0.1266,0.6646,-0.2090,0.708
2.418000,0.0138,0.8703,-0.0448,0.872
2.419000,-0.0809,1.0007,0.0304,1.004
2.423000,-0.1737,1.1048,-0.1371,1.127
2.428000,-0.2989,1.1654,-0.3731,1.260
2.432000,-0.4454,1.2421,-0.4468,1.393
2.438000,-0.5286,1.4493,-0.4476,1.606
2.443000,-0.4838,1.4497,-0.5930,1.639
2.448000,-0.3408,1.3424,-0.7669,1.583
2.453000,-0.1032,1.3104,-0.8530,1.567
2.458000,0.0732,1.2063,-0.9414,1.532
2.463000,0.3319,1.1236,-0.8263,1.434
2.482000,0.6112,1.0248,-0.4148,1.263
2.483000,0.8265,0.9379,-0.2133,1.268
2.484000,0.9589,1.0372,-0.1793,1.424
2.485000,0.8172,1.1063,-0.1787,1.387
2.488000,0.7908,1.0422,-0.3157,1.346
2.493000,0.7736,1.2563,-0.3407,1.514
2.498000,0.8151,1.5174,-0.4463,1.779
2.520000,0.8598,1.7656,-0.5490,2.039
2.521000,0.8840,2.0454,-0.4977,2.283
2.523000,1.0412,2.3127,-0.4162,2.570
2.524000,1.0824,2.5210,-0.3918,2.771
2.524000,0.9458,2.6285,-0.3739,2.818
2.529000,0.8716,2.6331,-0.3089,2.791
2.535000,0.9524,2.6210,-0.2337,2.798
2.539000,1.1003,2.6034,-0.2042,2.834
2.544000,1.1038,2.6065,-0.2454,2.841
2.549000,1.0359,2.6151,-0.3830,2.839
2.554000,0.8841,2.5815,-0.7294,2.825
2.559000,0.6368,2.3900,-0.8967,2.631
2.564000,0.6968,2.1339,-1.1351,2.515
2.568000,0.7532,1.9537,-1.0241,2.331
2.574000,0.8307,1.6711,-0.8502,2.051
2.579000,0.7907,1.4325,-0.8315,1.835
2.597000,0.8135,1.1353,-0.7408,1.581
2.598000,0.7462,0.7662,-0.7144,1.286
2.599000,0.6412,0.4081,-0.7528,1.070
2.600000,0.6062,0.0179,-0.8163,1.017
2.630000,0.4817,-0.3434,-0.8749,1.056
2.631000,0.3883,-0.6411,-0.9531,1.213
2.633000,0.4552,-1.0749,-1.0548,1.573
2.634000,0.4403,-1.2861,-0.7444,1.550
2.635000,0.3969,-1.4136,-0.3310,1.505
2.636000,0.2503,-1.4849,-0.1993,1.519
2.637000,0.0401,-1.5348,-0.0608,1.537
2.640000,-0.0913,-1.6579,-0.0834,1.662
2.645000,-0.2827,-1.7001,-0.1328,1.729
2.652000,-0.4698,-1.7395,0.0768,1.803
2.655000,-0.6484,-2.0095,0.3541,2.141
2.660000,-0.4809,-2.2277,0.4256,2.318
2.665000,-0.7452,-2.1841,0.6890,2.408
2.670000,-1.0671,-2.5079,0.7409,2.824
2.676000,-0.8571,-2.8808,0.5720,3.060
2.680000,-0.6776,-3.3547,0.5485,3.466
2.695000,-0.5440,-3.9275,0.5373,4.001
2.696000,-0.4355,-4.2761,0.4570,4.322
2.697000,-0.7317,-4.5536,1.0112,4.722
2.718000,-0.1379,-5.3259,1.7857,5.619
2.720000,0.1738,-6.0792,2.4032,6.539
2.721000,-0.0256,-6.2603,2.0824,6.598
2.722000,-1.3114,-4.7025,0.8084,4.948
2.723000,-2.4711,-1.2937,1.1149,3.004
2.726000,-3.7774,2.8708,1.2135,4.897
2.731000,-4.3999,6.3505,1.1926,7.817
2.736000,-4.3018,9.0926,3.3062,10.588
2.741000,-3.9376,9.7160,5.8342,11.998
2.746000,-3.0393,9.2343,7.6803,12.389
2.752000,-1.8980,8.5890,6.7211,11.070
2.756000,-0.9872,8.1739,4.4616,9.364
2.761000,0.0754,8.1519,1.8723,8.364
2.766000,1.5339,7.8728,-1.4215,8.146
2.771000,3.0946,6.8863,-5.0572,9.087
2.776000,3.9714,5.2159,-7.8436,10.222
2.781000,4.2483,3.4132,-8.2460,9.884
2.786000,3.9082,1.6516,-8.4546,9.460
2.792000,3.2493,0.1519,-7.3350,8.024
2.797000,2.1177,-0.6941,-5.0420,5.513
2.824000,0.9953,-1.0020,-3.1570,3.459
2.826000,0.2410,-1.2362,-1.6423,2.070
2.826000,-0.1105,-1.4321,-0.3836,1.487
2.828000,-0.2830,-1.6252,0.5134,1.728
2.829000,-0.1874,-1.8144,1.1543,2.159
2.834000,-0.0206,-1.9143,1.5041,2.435
2.835000,0.1337,-1.8187,1.5412,2.388
2.837000,0.2940,-1.6028,1.3783,2.134
2.842000,0.3028,-1.2636,1.2762,1.821
2.847000,0.1968,-0.8744,1.2400,1.530
2.866000,0.0500,-0.4659,1.2453,1.331
2.867000,-0.3414,0.0512,1.1329,1.184
2.868000,-0.4639,0.3781,1.1510,1.297
2.868000,-0.2789,0.3544,1.3386,1.413
2.872000,-0.0459,0.1758,1.4181,1.430
2.878000,0.0426,0.0175,1.2486,1.249
2.883000,0.0736,-0.1189,1.0644,1.074
2.894000,0.1963,-0.2235,0.7086,0.768
2.895000,0.2374,-0.2706,0.3055,0.472
2.898000,0.2711,-0.2728,-0.0438,0.387
2.906000,0.2561,-0.2365,-0.4420,0.563
2.908000,0.2077,-0.1633,-0.7794,0.823
2.913000,0.1214,-0.0906,-1.0384,1.049
2.928000,0.0217,-0.0720,-1.1968,1.199
2.929000,-0.0933,-0.0623,-1.3246,1.329
2.930000,-0.1258,-0.0970,-1.3547,1.364
2.933000,-0.1070,-0.1066,-1.2505,1.260
2.956000,-0.0529,-0.0815,-0.9661,0.971
2.957000,-0.0537,-0.0811,-0.7511,0.757
2.957000,-0.1127,-0.0609,-0.5164,0.532
2.958000,-0.1447,-0.1078,-0.2799,0.333
2.958000,-0.1581,-0.0803,-0.0807,0.195
2.964000,-0.1516,-0.0714,0.0862,0.188
2.969000,-0.0999,-0.0822,0.2252,0.260
2.973000,-0.0626,-0.0539,0.4137,0.422
2.979000,-0.0159,-0.0380,0.5179,0.520
2.984000,0.0705,0.0015,0.5825,0.587
2.989000,0.1309,0.1109,0.5919,0.616
2.994000,0.1965,0.1228,0.5049,0.556
2.999000,0.2759,0.1218,0.4634,0.553
3.004000,0.3695,0.1019,0.3888,0.546
3.009000,0.4055,0.0497,0.3169,0.517
3.014000,0.4139,0.0179,0.1910,0.456
3.033000,0.4388,0.0410,0.0371,0.442
3.034000,0.4336,0.0652,-0.0852,0.447
3.035000,0.4243,0.0139,-0.1092,0.438
3.035000,0.3830,0.0297,-0.0346,0.386
3.042000,0.3668,0.0204,-0.1881,0.413
3.044000,0.3758,0.0063,-0.1992,0.425
3.049000,0.3822,0.0090,-0.0839,0.391
3.071000,0.3947,0.0295,-0.0130,0.396
3.072000,0.3978,0.0751,-0.0140,0.405
3.072000,0.3587,0.0465,0.0075,0.362
3.073000,0.3467,0.0085,0.0767,0.355
3.075000,0.3259,0.0508,0.1877,0.379
3.080000,0.3487,0.0883,0.2602,0.444
3.086000,0.3468,0.0673,0.3925,0.528
3.090000,0.3608,0.0945,0.5416,0.658
3.095000,0.3561,0.0477,0.6594,0.751
3.100000,0.3294,0.0058,0.7566,0.825
3.105000,0.3251,-0.0563,0.8107,0.875
3.110000,0.3278,-0.1099,0.7594,0.834
3.115000,0.3204,-0.2042,0.7696,0.858
3.120000,0.2960,-0.2732,0.6933,0.802
3.126000,0.2461,-0.2585,0.5689,0.672
3.131000,0.2423,-0.2892,0.4654,0.599
3.150000,0.2212,-0.3127,0.3781,0.538
3.151000,0.2341,-0.2727,0.2893,0.461
3.152000,0.1919,-0.2328,0.2412,0.386
3.153000,0.1722,-0.2132,0.2659,0.382
3.155000,0.1812,-0.1612,0.3209,0.402
3.160000,0.1976,-0.0937,0.3037,0.374
3.166000,0.1706,-0.0298,0.2720,0.322
3.189000,0.1888,-0.0090,0.2355,0.302
3.190000,0.2192,0.0500,0.1223,0.256
3.191000,0.2188,0.0811,-0.0367,0.236
3.192000,0.2094,0.0617,-0.1579,0.269
3.192000,0.2172,0.0468,-0.2834,0.360
3.196000,0.1908,0.0685,-0.3671,0.419
3.203000,0.1836,0.0743,-0.4307,0.474
3.206000,0.1545,0.0895,-0.4670,0.500
3.212000,0.1678,0.0876,-0.4488,0.487
3.217000,0.1674,0.1095,-0.3734,0.424
3.221000,0.1841,0.1014,-0.3281,0.390
3.227000,0.2134,0.0561,-0.2479,0.332
3.231000,0.1691,-0.0190,-0.1745,0.244
3.249000,0.1480,-0.0522,-0.1485,0.216
3.250000,0.1346,-0.1331,-0.0944,0.212
3.250000,0.0582,-0.1433,-0.0887,0.178
3.251000,0.0799,-0.1498,-0.0165,0.171
3.284000,0.0559,-0.1118,0.0406,0.131
3.285000,0.0232,-0.0928,0.1172,0.151
3.285000,0.0583,-0.0545,0.0940,0.123
3.286000,0.0976,-0.0065,0.0808,0.127
3.287000,0.1082,0.0033,0.1447,0.181
3.287000,0.1410,0.0671,0.1621,0.225
3.288000,0.2183,0.0892,0.1488,0.279
3.292000,0.2757,0.0673,0.1705,0.331
3.297000,0.2261,0.0372,0.1184,0.258
3.303000,0.1794,0.0026,0.0246,0.181
3.307000,0.2275,-0.0832,-0.0034,0.242
3.312000,0.3301,-0.1247,-0.0854,0.363
3.317000,0.3318,-0.1385,-0.1386,0.385
3.323000,0.3729,-0.1332,-0.2078,0.447
3.327000,0.3891,-0.1378,-0.3205,0.523
3.333000,0.3699,-0.1737,-0.4343,0.596
3.346000,0.3787,-0.1550,-0.5100,0.654
3.347000,0.3210,-0.1308,-0.5611,0.660
3.348000,0.2544,-0.0629,-0.5244,0.586
3.373000,0.1366,-0.0350,-0.5204,0.539
3.374000,0.0443,-0.0313,-0.4534,0.457
3.374000,-0.0397,0.0045,-0.4053,0.407
3.375000,-0.1403,0.0474,-0.3852,0.413
3.375000,-0.2156,0.0817,-0.3415,0.412
3.378000,-0.1798,0.1400,-0.3277,0.399
3.383000,-0.1524,0.2066,-0.3975,0.473
3.388000,-0.1452,0.2122,-0.4072,0.482
3.393000,-0.2191,0.2871,-0.3567,0.508
3.398000,-0.2500,0.3143,-0.3260,0.517
3.403000,-0.2751,0.2938,-0.3701,0.547
3.408000,-0.2811,0.2938,-0.3733,0.552
3.413000,-0.2769,0.3022,-0.3354,0.530
3.419000,-0.2553,0.2713,-0.3466,0.509
3.424000,-0.2403,0.2455,-0.2584,0.430
3.429000,-0.2067,0.2281,-0.1618,0.348
3.434000,-0.1677,0.2085,-0.0438,0.271
3.439000,-0.1220,0.1616,-0.0141,0.203
3.444000,-0.0957,0.1315,0.0801,0.181
3.449000,-0.0722,0.0943,0.1190,0.168
3.468000,-0.1029,0.0619,0.1206,0.170
3.470000,-0.1271,-0.0169,0.1554,0.201
3.470000,-0.1494,-0.0501,0.2234,0.273
3.471000,-0.2010,-0.0867,0.2817,0.357
3.475000,-0.2448,-0.1112,0.3915,0.475
3.479000,-0.3012,-0.1366,0.4248,0.538
3.484000,-0.3951,-0.1344,0.4813,0.637
3.505000,-0.4200,-0.1163,0.5097,0.671
3.506000,-0.4967,-0.1112,0.5388,0.741
3.506000,-0.5461,-0.0964,0.5387,0.773
3.507000,-0.5707,-0.0885,0.4928,0.759
3.509000,-0.5978,-0.0433,0.4849,0.771
3.515000,-0.6298,0.0031,0.4894,0.798
3.521000,-0.6263,0.0424,0.4669,0.782
3.525000,-0.5764,0.0496,0.4463,0.731
3.530000,-0.5508,0.1036,0.3894,0.682
3.535000,-0.5026,0.1194,0.3880,0.646
3.540000,-0.4604,0.1293,0.3201,0.575
3.545000,-0.3778,0.1585,0.2719,0.492
3.550000,-0.3218,0.1374,0.2345,0.421
3.555000,-0.2238,0.1163,0.2606,0.363
3.560000,-0.1582,0.1455,0.2150,0.304
3.565000,-0.0637,0.1244,0.1658,0.217
3.580000,-0.0194,0.1068,0.1607,0.194
3.581000,0.0504,0.0664,0.1100,0.138
3.582000,0.1157,0.0522,0.0602,0.140
3.586000,0.2146,0.0403,0.0520,0.224
3.605000,0.2431,0.0008,0.0038,0.243
3.606000,0.3018,-0.0340,-0.0363,0.306
3.606000,0.3248,-0.1109,-0.0208,0.344
3.607000,0.3252,-0.1602,-0.0345,0.364
3.611000,0.3270,-0.1964,0.0269,0.382
3.616000,0.3242,-0.2398,0.0103,0.403
3.622000,0.2812,-0.2366,0.0284,0.369
3.626000,0.2553,-0.2239,0.0655,0.346
3.631000,0.2930,-0.2137,0.1052,0.378
3.637000,0.2833,-0.2167,0.1437,0.385
3.641000,0.2501,-0.2281,0.1490,0.370
3.646000,0.2317,-0.2084,0.1510,0.346
3.651000,0.2137,-0.1351,0.0920,0.269
3.656000,0.1707,-0.1336,0.0511,0.223
3.661000,0.1386,-0.1189,0.0208,0.184
3.666000,0.0789,-0.0828,0.0156,0.115
3.683000,0.0550,-0.0611,0.0494,0.096
3.685000,0.0310,-0.0263,0.0720,0.083
3.685000,0.0619,-0.0311,0.0727,0.100
3.717000,0.0150,0.0179,0.0816,0.085
3.718000,0.0004,0.0430,0.1346,0.141
3.719000,0.0409,0.0345,0.1266,0.137
3.720000,0.0216,0.0428,0.1414,0.149
3.721000,0.0742,0.0463,0.1553,0.178
3.721000,0.1149,0.0331,0.2041,0.237
3.723000,0.0878,0.0521,0.2915,0.309
3.724000,0.0993,0.0354,0.3363,0.352
3.727000,0.1111,0.0545,0.3698,0.390
3.733000,0.1186,0.0007,0.3822,0.400
3.738000,0.1396,-0.0386,0.3391,0.369
3.742000,0.1393,-0.0493,0.2436,0.285
3.748000,0.0903,-0.0587,0.1040,0.150
3.755000,0.0617,-0.0097,0.0148,0.064
3.759000,0.0655,0.0178,-0.0616,0.092
3.763000,0.0009,0.0762,-0.1372,0.157
3.768000,-0.0079,0.0724,-0.2337,0.245
3.774000,-0.0253,0.1079,-0.2173,0.244
3.778000,-0.0464,0.1349,-0.2267,0.268
3.783000,0.0043,0.1152,-0.1590,0.196
3.802000,0.0194,0.1000,-0.0371,0.108
3.803000,0.0516,0.0572,0.0412,0.087
3.804000,0.0590,0.0228,0.1240,0.139
3.805000,0.0569,-0.0249,0.1481,0.161
3.808000,0.0101,-0.0353,0.1448,0.149
3.813000,0.0294,-0.0291,0.1929,0.197
3.818000,0.0225,-0.0360,0.1874,0.192
3.838000,-0.0115,0.0011,0.1193,0.120
3.839000,-0.0250,0.0166,0.1018,0.106
3.840000,0.0054,0.0665,0.0430,0.079
3.841000,0.0292,0.1337,0.0094,0.137
3.844000,0.0135,0.1434,-0.0455,0.151
3.849000,-0.0274,0.1817,-0.0632,0.194
3.855000,-0.0399,0.1947,-0.0322,0.201
3.859000,-0.0178,0.2005,-0.0061,0.201
3.864000,0.0102,0.1575,0.0139,0.158
3.869000,-0.0190,0.1234,0.0224,0.127
3.875000,-0.0203,0.1085,0.0005,0.110
3.879000,-0.0272,0.0653,0.0091,0.071
3.884000,-0.0445,0.0130,0.0205,0.051
3.900000,-0.0684,-0.0317,0.0156,0.077
3.901000,-0.0906,-0.0382,0.0085,0.099
3.902000,-0.0743,-0.0707,0.0075,0.103
3.935000,-0.0926,-0.0804,-0.0115,0.123
3.936000,-0.0609,-0.0664,0.0274,0.094
3.937000,-0.0451,-0.0418,0.0454,0.076
3.938000,-0.0021,-0.0223,0.0523,0.057
3.939000,-0.0368,-0.0183,0.0591,0.072
3.939000,-0.0202,0.0106,0.1133,0.116
3.940000,0.0233,0.0037,0.1208,0.123
3.941000,0.0317,-0.0042,0.1345,0.138
3.945000,0.0081,-0.0476,0.0546,0.073
3.950000,0.0011,-0.0621,0.0599,0.086
3.955000,-0.0107,-0.0882,0.0797,0.119
3.960000,-0.0193,-0.1057,0.0760,0.132
3.965000,0.0352,-0.1028,0.1130,0.157
3.972000,0.0240,-0.1165,0.1289,0.175
3.975000,0.0222,-0.0990,0.1532,0.184
3.980000,0.0407,-0.1007,0.1776,0.208
3.985000,0.0923,-0.1273,0.1772,0.237
3.991000,0.0960,-0.0847,0.1392,0.189
3.996000,0.0797,-0.0721,0.1515,0.186
4.000000,0.0967,-0.1083,0.1651,0.220
4.026000,0.0861,-0.0955,0.1156,0.173
4.027000,0.0448,-0.0936,0.0579,0.119
4.028000,0.0573,-0.0620,-0.0031,0.085
4.029000,0.0411,-0.0248,-0.0307,0.057
4.030000,0.0307,-0.0307,0.0031,0.044
4.031000,0.0176,-0.0437,-0.0374,0.060
4.035000,0.0140,-0.0672,-0.0125,0.070
4.066000,-0.0183,-0.0751,-0.0378,0.086
4.067000,0.0112,-0.0425,-0.0130,0.046
4.068000,-0.0118,-0.0577,-0.0380,0.070
4.069000,-0.0253,-0.0417,-0.0176,0.052
4.069000,-0.0211,-0.0259,-0.0649,0.073
4.070000,-0.0005,-0.0374,-0.0773,0.086
4.095000,0.0078,-0.0226,-0.0990,0.102
4.096000,0.0218,-0.0163,-0.1265,0.129
4.097000,0.0011,-0.0147,-0.1432,0.144
4.097000,0.0246,-0.0096,-0.1313,0.134
4.098000,0.0417,0.0655,-0.1732,0.190
4.098000,0.0645,0.0758,-0.1449,0.176
4.102000,0.0682,0.0457,-0.1324,0.156
4.107000,0.0350,0.0751,-0.1215,0.147
4.111000,0.0307,0.0745,-0.1346,0.157
4.116000,0.0170,0.0312,-0.1072,0.113
4.132000,0.0034,0.0287,-0.1144,0.118
4.133000,-0.0279,0.0570,-0.1157,0.132
4.134000,-0.0043,0.0435,-0.0693,0.082
4.156000,-0.0022,0.0290,-0.0422,0.051
4.157000,0.0056,0.0230,-0.0116,0.026
4.158000,-0.0151,-0.0174,-0.0024,0.023
4.158000,-0.0309,-0.0099,0.0106,0.034
4.159000,-0.0251,-0.0131,-0.0014,0.028
4.162000,-0.0124,-0.0151,-0.0036,0.020
4.167000,-0.0165,-0.0383,-0.0459,0.062
4.172000,-0.0076,-0.0126,-0.0224,0.027
4.177000,0.0012,-0.0477,-0.0192,0.051
4.182000,0.0181,-0.0492,-0.0134,0.054
4.188000,0.0254,-0.0553,-0.0195,0.064
4.192000,0.0442,-0.0483,-0.0504,0.083
4.197000,0.0557,-0.0509,-0.0478,0.089
4.203000,0.0658,-0.0783,-0.1021,0.144
4.208000,0.0577,-0.0817,-0.1417,0.173
4.213000,0.1044,-0.0970,-0.1242,0.189
4.218000,0.1123,-0.0586,-0.1258,0.179
4.235000,0.1036,-0.0503,-0.1549,0.193
4.236000,0.0770,-0.0812,-0.0876,0.142
4.236000,0.1006,-0.0965,-0.0981,0.170
4.268000,0.1003,-0.0570,-0.0610,0.131
4.269000,0.1012,-0.0772,-0.0716,0.146
4.270000,0.0989,-0.0747,-0.0392,0.130
4.271000,0.1262,-0.0746,-0.0140,0.147
4.271000,0.1227,-0.0530,-0.0373,0.139
4.272000,0.1135,-0.0756,0.0063,0.137
4.272000,0.1153,-0.1098,-0.0131,0.160
4.274000,0.1005,-0.1129,-0.0475,0.158
4.278000,0.1096,-0.0779,-0.0328,0.138
4.285000,0.0940,-0.0646,-0.0752,0.137
4.289000,0.0903,-0.0871,-0.1364,0.185
4.294000,0.0975,-0.1023,-0.1201,0.185
4.299000,0.1083,-0.0724,-0.1019,0.165
4.306000,0.0988,-0.0784,-0.1105,0.168
4.309000,0.0976,-0.0761,-0.1109,0.166
4.314000,0.1058,-0.0620,-0.1127,0.167
4.319000,0.0996,-0.0326,-0.1422,0.177
4.324000,0.0920,-0.0830,-0.1516,0.196
4.329000,0.0891,-0.1093,-0.1899,0.236
4.334000,0.0931,-0.0582,-0.1794,0.210
4.352000,0.0720,-0.0397,-0.1445,0.166
4.353000,0.0604,-0.0331,-0.0532,0.087
4.354000,0.0525,-0.0563,0.0398,0.087
4.354000,0.0993,-0.0675,0.0705,0.139
4.382000,0.1008,-0.0535,0.1238,0.168
4.383000,0.1072,-0.0634,0.1796,0.219
4.383000,0.1067,-0.1004,0.1333,0.198
4.384000,0.0612,-0.0861,0.0890,0.138
4.385000,0.0460,-0.0836,-0.0328,0.101
4.385000,0.0498,-0.0479,-0.0821,0.107
4.396000,0.0153,-0.0006,-0.1157,0.117
4.397000,0.0354,0.0024,-0.1505,0.155
4.400000,0.0456,0.0030,-0.2069,0.212
4.407000,0.0686,0.0094,-0.1969,0.209
4.410000,0.0783,-0.0069,-0.1534,0.172
4.415000,0.1058,-0.0364,-0.1397,0.179
4.420000,0.0966,-0.0717,-0.0912,0.151
4.425000,0.0781,-0.0785,-0.0413,0.118
4.430000,0.0637,-0.0616,0.0063,0.089
4.436000,0.0365,-0.0675,0.0746,0.107
4.449000,0.0359,-0.1079,0.1090,0.157
4.450000,0.0272,-0.1040,0.1493,0.184
4.451000,-0.0074,-0.0669,0.1230,0.140
4.477000,-0.0049,-0.0537,0.1460,0.156
4.478000,-0.0074,0.0117,0.0721,0.073
4.478000,-0.0184,0.0281,0.0350,0.049
4.479000,-0.0416,0.0635,0.0223,0.079
4.479000,0.0028,0.0738,-0.0503,0.089
4.482000,-0.0021,0.0699,-0.0498,0.086
4.486000,-0.0060,0.0625,-0.0588,0.086
4.491000,0.0128,0.0551,-0.0275,0.063
4.496000,0.0065,0.0560,-0.1143,0.127
4.501000,-0.0067,0.0331,-0.1436,0.147
4.506000,0.0114,0.0353,-0.0599,0.070
4.512000,0.0154,-0.0268,-0.0293,0.043
4.517000,0.0208,-0.0600,-0.0583,0.086
4.523000,0.0147,-0.0264,-0.0075,0.031
4.527000,0.0339,-0.0015,0.0323,0.047
4.532000,0.0413,-0.0053,0.0196,0.046
4.537000,0.0501,-0.0459,0.0405,0.079
4.542000,0.0375,-0.0494,-0.0123,0.063
4.547000,0.0713,-0.0327,-0.0031,0.079
4.552000,0.0408,-0.0423,0.0143,0.060
4.566000,0.0344,-0.0209,0.0242,0.047
4.567000,0.0267,-0.0046,0.0018,0.027
4.567000,0.0118,-0.0157,-0.0398,0.044
4.596000,-0.0456,-0.0173,-0.0102,0.050
4.597000,-0.0292,-0.0094,-0.0286,0.042
4.597000,-0.0309,0.0092,-0.0731,0.080
4.598000,-0.0695,0.0287,-0.0747,0.106
4.598000,-0.0520,0.0326,-0.0776,0.099
4.599000,-0.0739,0.0532,-0.0866,0.126
4.602000,-0.0718,0.0260,-0.0790,0.110
4.607000,-0.0459,0.0180,-0.0548,0.074
4.613000,-0.0568,0.0231,-0.0651,0.089
4.618000,-0.0533,0.0436,-0.0894,0.113
4.624000,-0.0270,0.0510,-0.0335,0.067
4.628000,-0.0258,0.0607,-0.0194,0.069
4.632000,-0.0104,0.0430,-0.0657,0.079
4.637000,0.0015,0.0243,-0.0543,0.060
4.643000,0.0075,0.0153,-0.0417,0.045
4.648000,0.0218,-0.0304,-0.0518,0.064
4.653000,0.0041,-0.0177,-0.0347,0.039
4.658000,-0.0062,-0.0360,-0.0415,0.055
4.663000,0.0084,-0.0589,-0.0353,0.069
4.668000,-0.0138,-0.0602,-0.0447,0.076
4.687000,-0.0158,-0.0354,-0.0113,0.040
4.688000,-0.0367,-0.0180,0.0086,0.042
4.689000,-0.0218,-0.0459,-0.0276,0.058
4.690000,-0.0274,-0.0545,0.0101,0.062
4.693000,-0.0187,-0.0227,0.0142,0.033
4.698000,-0.0113,-0.0113,0.0325,0.036
4.703000,-0.0350,-0.0035,0.0329,0.048
4.725000,-0.0373,0.0030,0.0557,0.067
4.726000,-0.0396,0.0381,0.0014,0.055
4.727000,-0.0326,0.0574,0.0081,0.067
4.727000,-0.0459,0.0339,0.0231,0.062
4.729000,-0.0617,0.0486,0.0463,0.091
4.734000,-0.0262,0.0181,0.0505,0.060
4.740000,-0.0103,0.0318,0.0072,0.034
4.744000,-0.0419,0.0015,0.0190,0.046
4.749000,-0.0199,-0.0000,0.0201,0.028
4.755000,-0.0100,-0.0157,0.0463,0.050
4.759000,-0.0155,-0.0076,0.0628,0.065
4.764000,-0.0269,-0.0256,0.0437,0.057
4.769000,-0.0097,-0.0221,0.0664,0.071
4.785000,-0.0139,-0.0139,0.0677,0.070
4.786000,-0.0335,0.0038,0.1010,0.107
4.786000,-0.0257,-0.0202,0.0784,0.085
4.813000,-0.0250,-0.0357,0.0608,0.075
4.815000,-0.0481,-0.0106,0.0433,0.066
4.816000,-0.0140,-0.0155,0.0594,0.063
4.816000,-0.0349,-0.0227,0.0408,0.058
4.816000,-0.0593,0.0023,0.0472,0.076
4.817000,-0.0371,0.0033,0.0621,0.072
4.820000,-0.0342,-0.0004,0.0246,0.042
4.825000,-0.0219,0.0481,0.0111,0.054
4.830000,-0.0369,0.0523,0.0299,0.071
4.835000,-0.0174,0.0518,0.0164,0.057
4.840000,0.0066,0.0394,0.0174,0.044
4.845000,0.0032,0.0307,-0.0243,0.039
4.850000,0.0081,0.0612,-0.0559,0.083
4.857000,-0.0191,0.0773,-0.0303,0.085
4.860000,-0.0223,0.0493,-0.0344,0.064
4.865000,-0.0265,0.0761,-0.1074,0.134
4.871000,-0.0380,0.0517,-0.1192,0.135
4.876000,-0.0328,0.0394,-0.0716,0.088
4.881000,-0.0231,0.0355,-0.0587,0.072
4.886000,-0.0144,0.0091,-0.0494,0.052
4.903000,-0.0271,-0.0004,0.0063,0.028
4.904000,-0.0337,-0.0253,0.0070,0.043
4.905000,-0.0392,-0.0262,0.0112,0.048
4.943000,-0.0540,-0.0343,0.0025,0.064
4.944000,-0.0202,-0.0458,0.0128,0.052
4.945000,-0.0043,-0.0228,0.0183,0.030
4.946000,-0.0409,-0.0404,-0.0037,0.058
4.946000,-0.0368,-0.0246,-0.0232,0.050
4.947000,-0.0198,-0.0160,-0.0498,0.056
4.948000,-0.0220,-0.0123,-0.0513,0.057
4.948000,0.0028,-0.0205,-0.0245,0.032
4.949000,-0.0249,-0.0143,-0.0313,0.042
4.952000,-0.0169,-0.0117,-0.0084,0.022
4.958000,-0.0410,-0.0175,-0.0118,0.046
4.962000,-0.0103,-0.0363,-0.0354,0.052
4.967000,-0.0239,-0.0466,-0.0660,0.084
4.974000,-0.0196,-0.0425,-0.1069,0.117
4.977000,-0.0130,-0.0326,-0.1014,0.107
4.982000,-0.0148,-0.0418,-0.0367,0.058
4.987000,-0.0321,-0.0615,0.0300,0.076
4.992000,-0.0172,-0.0383,0.0964,0.105
4.998000,0.0216,-0.0770,0.1378,0.159
5.002000,0.0719,-0.1164,0.1732,0.221
5.021000,0.0899,-0.1223,0.1898,0.243
5.022000,0.0426,-0.1078,0.1688,0.205
5.023000,0.0478,-0.0839,0.1058,0.143
5.024000,0.0209,-0.0909,0.0533,0.107
5.027000,0.0321,-0.0265,0.0002,0.042
5.033000,0.0382,-0.0090,-0.0347,0.052
5.038000,0.0168,0.0120,-0.1134,0.115
5.059000,0.0061,0.0469,-0.0994,0.110
5.060000,0.0320,0.0424,-0.1383,0.148
5.061000,0.0258,0.0092,-0.1122,0.116
5.062000,0.0328,0.0058,-0.0706,0.078
5.063000,0.0505,-0.0404,-0.0489,0.081
5.069000,0.0290,-0.0258,-0.0444,0.059
5.075000,0.0306,-0.0625,0.0000,0.070
5.078000,0.0336,-0.0836,0.0106,0.091
5.083000,0.0069,-0.0654,0.0151,0.067
5.089000,0.0042,-0.0840,0.0436,0.095
5.093000,0.0160,-0.0586,0.0850,0.104
5.098000,0.0430,-0.0310,0.0457,0.070
5.104000,0.0471,-0.0070,0.0320,0.057
5.122000,0.0390,0.0204,0.0377,0.058
5.123000,0.0558,0.0038,-0.0040,0.056
5.124000,0.0603,0.0242,-0.0749,0.099
5.126000,0.0336,0.0254,-0.1169,0.124
5.129000,0.0166,-0.0162,-0.1410,0.143
5.134000,0.0379,-0.0147,-0.1723,0.177
5.139000,0.0185,-0.0193,-0.1041,0.107
5.161000,0.0457,-0.0310,-0.0674,0.087
5.162000,0.0384,-0.0379,-0.0703,0.089
5.163000,0.0443,-0.0733,-0.0302,0.091
5.164000,0.0635,-0.0869,0.0311,0.112
5.164000,0.0530,-0.0732,0.0222,0.093
5.170000,0.0345,-0.0821,0.0268,0.093
5.175000,0.0555,-0.0695,0.0220,0.092
5.180000,0.0561,-0.0499,0.0031,0.075
5.185000,0.0388,-0.0910,-0.0003,0.099
5.191000,0.0476,-0.0558,-0.0703,0.102
5.195000,0.0409,-0.0090,-0.0485,0.064
5.199000,0.0638,-0.0018,-0.0592,0.087
5.204000,0.0458,-0.0007,-0.1035,0.113
5.209000,0.0266,0.0005,-0.0289,0.039
5.215000,0.0408,0.0218,-0.0479,0.067
5.220000,0.0416,0.0274,-0.0836,0.097
5.241000,0.0745,0.0401,-0.0728,0.112
5.242000,0.1047,0.0076,-0.0647,0.123
5.244000,0.1028,-0.0034,-0.0780,0.129
5.245000,0.0892,-0.0297,-0.0555,0.109
5.246000,0.0663,-0.0130,-0.0033,0.068
5.254000,0.0879,-0.0417,0.0106,0.098
5.255000,0.0988,-0.0095,-0.0096,0.100
5.285000,0.0494,0.0070,0.0052,0.050
5.286000,0.0457,-0.0122,-0.0343,0.058
5.286000,0.0527,-0.0229,-0.0055,0.058
5.287000,0.0396,0.0057,-0.0576,0.070
5.288000,0.0324,-0.0194,-0.0012,0.038
5.288000,0.0419,-0.0514,-0.0414,0.078
5.297000,0.0275,-0.0451,-0.0363,0.064
5.298000,0.0465,-0.0152,-0.0030,0.049
5.301000,0.0415,-0.0259,0.0192,0.053
5.306000,0.0197,-0.0353,-0.0098,0.042
5.311000,0.0029,0.0100,0.0137,0.017
5.316000,0.0051,0.0277,0.0169,0.033
5.321000,-0.0131,0.0239,0.0309,0.041
5.335000,0.0187,0.0213,0.0152,0.032
5.336000,0.0407,0.0331,-0.0299,0.060
5.338000,0.0505,0.0353,-0.0246,0.066
5.361000,0.0661,0.0553,-0.0691,0.110
5.362000,0.0567,0.0360,-0.1180,0.136
5.363000,0.0416,0.0157,-0.1213,0.129
5.363000,0.0753,0.0275,-0.0949,0.124
5.363000,0.0661,-0.0082,-0.0783,0.103
5.367000,0.0736,0.0251,-0.0882,0.118
5.371000,0.0668,0.0297,-0.0932,0.118
5.377000,0.0661,0.0306,-0.0603,0.095
5.382000,0.0584,0.0030,-0.0408,0.071
5.387000,0.0520,0.0030,0.0001,0.052
5.392000,0.0672,0.0409,0.0039,0.079
5.397000,0.0694,0.0523,0.0065,0.087
5.402000,0.0159,0.0590,0.0318,0.069
5.408000,0.0389,0.0311,0.0524,0.072
5.412000,0.0190,0.0202,0.0636,0.069
5.417000,0.0325,0.0129,0.0202,0.040
5.422000,0.0365,0.0448,0.0497,0.076
5.427000,-0.0165,0.0160,0.0599,0.064
5.432000,-0.0311,0.0159,0.0451,0.057
5.438000,-0.0051,0.0086,0.0376,0.039
5.456000,-0.0138,-0.0473,0.0015,0.049
5.457000,0.0120,-0.0339,-0.0094,0.037
5.458000,-0.0074,-0.0325,-0.0263,0.042
5.459000,-0.0278,-0.0299,-0.0242,0.047
5.463000,-0.0303,-0.0488,0.0110,0.058
5.467000,-0.0043,-0.0735,-0.0326,0.081
5.473000,-0.0165,-0.0386,-0.0224,0.048
5.496000,0.0032,-0.0372,-0.0325,0.049
5.497000,-0.0057,-0.0191,-0.0625,0.066
5.498000,0.0055,-0.0309,-0.0649,0.072
5.499000,0.0010,-0.0330,-0.0376,0.050
5.500000,0.0191,0.0006,-0.0484,0.052
5.504000,0.0263,-0.0100,-0.0220,0.036
5.511000,0.0477,0.0032,-0.0720,0.086
5.514000,0.0152,0.0235,-0.1059,0.110
5.519000,0.0033,0.0187,-0.0717,0.074
5.524000,0.0437,0.0389,-0.0510,0.078
5.529000,0.0457,0.0174,-0.0291,0.057
5.534000,0.0239,0.0211,-0.0226,0.039
5.539000,0.0262,0.0069,-0.0149,0.031
5.556000,0.0390,-0.0154,-0.0119,0.044
5.557000,0.0671,-0.0185,0.0221,0.073
5.558000,0.0619,0.0152,0.0180,0.066
5.561000,0.0732,-0.0155,-0.0181,0.077
5.564000,0.0716,-0.0067,0.0114,0.073
5.569000,0.0653,0.0020,-0.0388,0.076
5.595000,0.0674,-0.0179,-0.0306,0.076
5.596000,0.0517,-0.0152,-0.1032,0.116
5.596000,0.0243,0.0006,-0.0733,0.077
5.597000,0.0137,-0.0336,-0.0699,0.079
5.598000,0.0351,-0.0047,-0.0893,0.096
5.600000,0.0195,0.0039,-0.0599,0.063
5.605000,-0.0090,-0.0102,-0.0700,0.071
5.609000,0.0055,-0.0124,-0.0849,0.086
5.615000,0.0057,0.0044,-0.0940,0.094
5.620000,-0.0464,0.0175,-0.0485,0.069
5.626000,-0.0339,0.0067,0.0333,0.048
5.630000,-0.0498,-0.0183,0.1026,0.116
5.635000,-0.0191,-0.0300,0.1266,0.131
5.640000,0.0198,-0.0237,0.1138,0.118
5.645000,-0.0057,-0.0127,0.1574,0.158
5.650000,0.0520,-0.0646,0.1928,0.210
5.655000,0.0394,-0.0792,0.1439,0.169
5.671000,-0.0063,-0.0889,0.0803,0.120
5.672000,0.0135,-0.0510,0.0589,0.079
5.673000,-0.0336,-0.0382,-0.0109,0.052
5.699000,-0.0294,0.0279,-0.0588,0.071
5.700000,-0.0659,0.0198,-0.1019,0.123
5.701000,-0.0369,0.0189,-0.1499,0.156
5.701000,-0.0452,0.0416,-0.1459,0.158
5.701000,-0.0199,-0.0073,-0.1283,0.130
5.702000,-0.0364,-0.0072,-0.0793,0.088
5.706000,-0.0394,-0.0488,-0.0421,0.076
5.710000,-0.0113,-0.0546,-0.0244,0.061
5.716000,0.0288,-0.0747,0.0427,0.091
5.721000,0.0724,-0.0603,0.0878,0.129
5.726000,0.0719,-0.0651,0.0564,0.112
5.730000,0.0835,-0.0568,0.0492,0.112
5.736000,0.0866,-0.0366,0.0316,0.099
5.742000,0.1214,0.0180,0.0239,0.125
5.746000,0.1130,0.0282,-0.0273,0.120
5.751000,0.0806,0.0528,-0.0540,0.110
5.756000,0.0791,0.0476,-0.0922,0.130
5.761000,0.0619,0.0176,-0.0991,0.118
5.766000,0.0506,0.0472,-0.1238,0.142
5.771000,0.0263,0.0327,-0.1104,0.118
5.788000,0.0129,0.0052,-0.0769,0.078
5.789000,0.0022,0.0004,-0.0496,0.050
5.790000,0.0118,-0.0363,-0.0724,0.082
5.822000,0.0240,-0.0313,-0.0449,0.060
5.823000,0.0099,-0.0749,-0.0115,0.076
5.824000,0.0151,-0.0362,0.0123,0.041
5.824000,0.0358,-0.0643,0.0374,0.083
5.825000,0.0207,-0.0897,0.0257,0.096
5.826000,0.0270,-0.0722,0.0318,0.083
5.827000,0.0392,-0.0477,0.0437,0.076
5.828000,-0.0022,-0.0971,-0.0017,0.097
5.832000,0.0055,-0.0974,0.0313,0.102
5.837000,-0.0013,-0.0587,-0.0314,0.067
5.844000,-0.0116,-0.0203,-0.0001,0.023
5.847000,-0.0007,-0.0428,-0.0407,0.059
5.853000,-0.0171,-0.0070,-0.0553,0.058
5.859000,-0.0372,0.0201,-0.0948,0.104
5.863000,0.0141,0.0197,-0.0678,0.072
5.868000,0.0257,0.0383,-0.0602,0.076
5.873000,0.0015,-0.0098,-0.0478,0.049
5.890000,0.0406,0.0174,-0.0400,0.060
5.891000,0.0366,0.0265,-0.0238,0.051
5.892000,0.0541,0.0464,-0.0514,0.088
5.897000,0.0490,0.0387,-0.0678,0.092
5.901000,0.0632,0.0359,-0.0351,0.081
5.902000,0.0311,0.0403,-0.0238,0.056
5.908000,-0.0136,0.0079,-0.0502,0.053
5.925000,-0.0152,-0.0101,-0.0230,0.029
5.926000,-0.0051,0.0173,-0.0447,0.048
5.927000,-0.0317,0.0147,-0.0521,0.063
5.928000,0.0083,-0.0259,-0.0382,0.047
5.934000,-0.0397,-0.0081,-0.0722,0.083
5.938000,-0.0409,-0.0414,-0.0704,0.091
5.944000,-0.0528,-0.0188,-0.0416,0.070
5.949000,-0.0313,-0.0297,0.0012,0.043
5.954000,-0.0408,-0.0309,0.0354,0.062
5.960000,-0.0302,0.0059,0.0504,0.059
5.964000,-0.0220,-0.0454,0.0407,0.065
5.969000,0.0003,-0.0131,-0.0258,0.029
5.974000,-0.0239,-0.0345,0.0331,0.053
5.979000,0.0186,-0.0283,-0.0068,0.035
5.984000,0.0441,-0.0364,-0.0332,0.066
5.989000,0.0446,-0.0385,-0.0380,0.070
6.007000,0.0569,-0.0703,-0.0571,0.107
6.010000,0.0513,-0.0402,-0.1059,0.124
6.010000,0.0529,-0.0554,-0.1130,0.137
6.011000,0.0747,-0.0659,-0.1048,0.145
6.014000,0.0560,-0.0656,-0.1098,0.140
6.019000,0.0424,-0.0582,-0.0747,0.104
6.024000,0.0323,-0.0605,-0.0626,0.093
6.041000,0.0130,-0.0639,-0.0686,0.095
6.042000,0.0282,-0.0721,-0.0794,0.111
6.042000,0.0114,-0.0732,-0.0629,0.097
6.044000,0.0469,-0.0600,-0.0228,0.080
6.049000,0.0073,-0.0457,-0.0127,0.048
6.055000,-0.0271,-0.0541,-0.0073,0.061
6.060000,0.0063,-0.0636,0.0241,0.068
6.065000,0.0109,-0.0658,0.0030,0.067
6.070000,0.0023,-0.0384,0.0012,0.038
6.078000,0.0054,-0.0360,0.0090,0.038
6.080000,-0.0129,-0.0574,-0.0403,0.071
6.085000,-0.0039,-0.0524,-0.0546,0.076
6.091000,0.0453,-0.0249,-0.0508,0.072
6.096000,0.0464,0.0084,-0.0625,0.078
6.101000,0.0392,-0.0167,-0.0966,0.106
6.105000,0.0391,0.0034,-0.0878,0.096
6.125000,0.0876,0.0187,-0.1063,0.139
6.126000,0.0940,-0.0208,-0.1034,0.141
6.127000,0.0614,-0.0053,-0.1076,0.124
6.127000,0.0491,-0.0209,-0.1333,0.144
6.131000,0.0441,0.0004,-0.1364,0.143
6.135000,0.0547,-0.0140,-0.1370,0.148
6.141000,0.0520,0.0084,-0.1508,0.160
6.163000,0.0422,-0.0061,-0.1490,0.155
6.165000,0.0290,-0.0039,-0.1174,0.121
6.166000,0.0324,-0.0360,-0.0740,0.088
6.167000,0.0500,-0.0251,-0.0663,0.087
6.167000,0.0223,-0.0225,-0.0419,0.053
6.171000,0.0281,-0.0046,-0.0495,0.057
6.178000,0.0493,-0.0330,-0.0119,0.060
6.182000,0.0393,-0.0587,-0.0159,0.072
6.186000,0.0747,-0.0523,-0.0223,0.094
6.191000,0.0694,-0.0601,-0.0488,0.104
6.197000,0.0546,-0.0856,-0.0480,0.112
6.201000,0.0304,-0.0968,-0.0511,0.114
6.206000,0.0384,-0.1056,-0.0710,0.133
6.223000,0.0512,-0.1013,-0.0817,0.140
6.224000,0.0224,-0.1363,-0.0913,0.166
6.225000,0.0092,-0.0892,-0.0571,0.106
6.253000,-0.0158,-0.0946,-0.0790,0.124
6.254000,0.0152,-0.0680,-0.1352,0.152
6.255000,0.0235,-0.0582,-0.1505,0.163
6.255000,0.0149,-0.0770,-0.1907,0.206
6.256000,0.0003,-0.0303,-0.2188,0.221
6.257000,-0.0093,0.0302,-0.1494,0.153
6.257000,-0.0083,0.0024,-0.1091,0.109
6.267000,0.0058,-0.0133,-0.0619,0.064
6.268000,0.0211,-0.0312,0.0897,0.097
6.272000,0.0627,-0.0465,0.1384,0.159
6.280000,0.0541,-0.0771,0.1398,0.169
6.282000,0.0552,-0.1369,0.1941,0.244
6.287000,0.0469,-0.1499,0.1724,0.233
6.292000,0.0613,-0.1236,0.0848,0.162
6.297000,0.0413,-0.1093,0.0029,0.117
6.302000,-0.0084,-0.0904,-0.0691,0.114
6.307000,-0.0344,-0.0146,-0.1239,0.129
6.321000,-0.0473,0.0677,-0.2025,0.219
6.322000,-0.0460,0.0565,-0.2027,0.215
6.322000,-0.0567,-0.0034,-0.1802,0.189
6.358000,-0.0421,0.0023,-0.1777,0.183
6.359000,-0.0453,-0.0126,-0.1490,0.156
6.360000,-0.0161,-0.0476,-0.0571,0.076
6.361000,-0.0283,-0.0802,0.0065,0.085
6.361000,-0.0021,-0.0936,0.0291,0.098
6.362000,0.0193,-0.0997,0.0529,0.114
6.363000,0.0191,-0.0867,0.0783,0.118
6.364000,0.0225,-0.0463,0.0733,0.090
6.368000,0.0434,-0.0072,0.0157,0.047
6.374000,0.0317,-0.0146,-0.0503,0.061
6.379000,0.0448,0.0151,-0.0596,0.076
6.383000,0.0442,0.0589,-0.1125,0.134
6.388000,0.0184,0.0430,-0.1687,0.175
6.394000,0.0082,0.0391,-0.1333,0.139
6.399000,0.0100,0.0018,-0.2126,0.213
6.403000,-0.0190,-0.0127,-0.1327,0.135
6.409000,-0.0272,-0.0415,-0.1144,0.125
6.415000,-0.0138,-0.0915,-0.0692,0.116
6.419000,-0.0239,-0.1044,-0.0291,0.111
6.424000,-0.0561,-0.1041,-0.0225,0.120
6.446000,-0.0417,-0.1252,0.0555,0.143
6.448000,-0.0558,-0.1104,0.0205,0.125
6.449000,-0.0779,-0.1195,0.0787,0.163
6.450000,-0.1045,-0.0834,0.0453,0.141
6.453000,-0.0681,-0.0629,0.0504,0.105
6.454000,-0.0702,-0.0520,0.0306,0.093
6.459000,-0.0772,-0.0329,-0.0188,0.086
6.487000,-0.0511,0.0134,-0.0108,0.054
6.489000,-0.0515,0.0000,-0.0422,0.067
6.490000,-0.0297,0.0235,-0.0415,0.056
6.492000,-0.0189,0.0326,-0.0732,0.082
6.493000,0.0011,0.0475,-0.0729,0.087
6.494000,0.0104,0.0325,-0.0966,0.102
6.518000,0.0291,0.0187,-0.0801,0.087
6.518000,0.0217,0.0145,-0.0639,0.069
6.519000,0.0157,0.0161,-0.0824,0.085
6.520000,0.0456,0.0119,-0.0365,0.060
6.520000,-0.0017,0.0254,-0.0633,0.068
6.521000,-0.0082,0.0389,-0.0539,0.067
6.525000,-0.0134,0.0570,-0.0254,0.064
6.530000,-0.0326,0.0573,0.0174,0.068
6.535000,-0.0495,0.0410,-0.0193,0.067
6.540000,-0.0519,0.0379,-0.0188,0.067
6.554000,-0.0852,0.0135,-0.0158,0.088
6.555000,-0.0660,0.0118,-0.0177,0.069
6.556000,-0.0851,-0.0207,0.0254,0.091
6.581000,-0.0613,0.0016,0.0039,0.061
6.582000,-0.0459,0.0083,-0.0198,0.051
6.582000,-0.0698,-0.0136,0.0241,0.075
6.583000,-0.0828,-0.0199,0.0402,0.094
6.583000,-0.0791,-0.0238,-0.0020,0.083
6.585000,-0.0599,0.0032,-0.0036,0.060
6.591000,-0.0506,0.0015,0.0257,0.057
6.595000,-0.0283,-0.0084,-0.0140,0.033
6.601000,-0.0028,0.0043,-0.0080,0.009
6.606000,-0.0038,0.0384,-0.0208,0.044
6.612000,0.0070,0.0236,-0.0263,0.036
6.616000,0.0223,0.0256,-0.0338,0.048
6.621000,0.0138,0.0288,-0.0565,0.065
6.626000,0.0170,0.0048,-0.0943,0.096
6.631000,-0.0165,0.0355,-0.0677,0.078
6.636000,-0.0033,-0.0100,-0.0877,0.088
6.641000,-0.0045,-0.0326,-0.1040,0.109
6.655000,-0.0044,-0.0147,-0.0857,0.087
6.657000,-0.0198,-0.0278,-0.1295,0.134
6.657000,-0.0327,-0.0135,-0.1042,0.110
6.688000,-0.0621,-0.0325,-0.0827,0.108
6.689000,-0.0888,-0.0218,-0.0495,0.104
6.690000,-0.0370,-0.0242,-0.0119,0.046
6.690000,-0.0628,-0.0159,0.0148,0.066
6.691000,-0.0539,0.0019,-0.0038,0.054
6.692000,-0.0382,-0.0291,-0.0030,0.048
6.692000,-0.0132,-0.0195,0.0144,0.028
6.701000,-0.0338,0.0175,-0.0265,0.046
6.702000,-0.0174,-0.0254,-0.0135,0.034
6.707000,-0.0178,-0.0418,-0.0137,0.047
6.712000,-0.0147,-0.0533,-0.0033,0.055
6.717000,0.0145,-0.0173,-0.0416,0.047
6.722000,0.0019,-0.0516,-0.0476,0.070
6.730000,0.0238,-0.0702,-0.0753,0.106
6.732000,0.0313,-0.0673,-0.0482,0.089
6.737000,-0.0014,-0.0515,-0.0418,0.066
6.742000,0.0315,-0.0418,-0.0700,0.087
6.747000,0.0108,-0.0228,-0.0424,0.049
6.753000,0.0331,-0.0110,-0.0506,0.061
6.758000,0.0245,-0.0042,-0.0601,0.065
6.776000,-0.0268,-0.0033,-0.0706,0.076
6.778000,-0.0184,0.0095,-0.0740,0.077
6.778000,-0.0206,0.0162,-0.0902,0.094
6.782000,-0.0381,0.0252,-0.0504,0.068
6.782000,-0.0331,0.0152,-0.0370,0.052
6.788000,-0.0197,0.0160,-0.0222,0.034
6.793000,-0.0383,-0.0200,-0.0108,0.045
6.815000,-0.0569,-0.0354,-0.0218,0.070
6.816000,-0.0372,-0.0091,-0.0241,0.045
6.817000,-0.0307,-0.0257,-0.0523,0.066
6.818000,-0.0313,-0.0327,-0.0933,0.104
6.818000,-0.0105,-0.0397,-0.1363,0.142
6.824000,0.0102,0.0152,-0.1397,0.141
6.829000,0.0082,0.0018,-0.1646,0.165
6.848000,-0.0234,-0.0031,-0.1657,0.167
6.848000,-0.0406,-0.0116,-0.1979,0.202
6.849000,-0.0315,-0.0094,-0.2135,0.216
6.852000,-0.0059,0.0035,-0.2066,0.207
6.853000,-0.0031,-0.0171,-0.2214,0.222
6.859000,-0.0073,-0.0388,-0.2222,0.226
6.876000,-0.0293,-0.0081,-0.2209,0.223
6.877000,-0.0131,-0.0026,-0.2007,0.201
6.878000,-0.0148,-0.0067,-0.1392,0.140
6.880000,-0.0378,-0.0155,-0.0557,0.069
6.883000,-0.0357,-0.0230,-0.0071,0.043
6.889000,-0.0051,-0.0387,0.0450,0.060
6.893000,0.0113,-0.0590,0.0664,0.090
6.906000,0.0122,-0.1004,0.1036,0.145
6.906000,-0.0120,-0.1092,0.0603,0.125
6.909000,0.0033,-0.1250,-0.0049,0.125
6.917000,-0.0159,-0.1276,-0.0242,0.131
6.919000,-0.0540,-0.1018,-0.0577,0.129
6.924000,-0.0587,-0.0630,-0.1312,0.157
6.930000,-0.0457,-0.0103,-0.2032,0.209
6.934000,-0.0708,0.0110,-0.2715,0.281
6.939000,-0.0555,0.0249,-0.3113,0.317
6.945000,-0.0807,0.0242,-0.3314,0.342
6.949000,-0.0830,0.0092,-0.3262,0.337
6.954000,-0.0732,-0.0262,-0.3077,0.317
6.959000,-0.0669,-0.0650,-0.2319,0.250
6.964000,-0.0734,-0.0764,-0.2393,0.262
6.970000,-0.0523,-0.0771,-0.1425,0.170
6.975000,-0.0264,-0.1122,-0.0394,0.122
6.992000,-0.0362,-0.1163,-0.0343,0.126
6.994000,-0.0138,-0.0727,-0.0527,0.091
6.994000,0.0131,-0.0460,-0.0655,0.081
7.027000,0.0133,-0.0157,-0.0706,0.074
7.028000,0.0130,-0.0259,-0.1677,0.170
7.029000,0.0194,-0.0061,-0.1542,0.156
7.030000,0.0289,0.0030,-0.1906,0.193
7.031000,0.0108,-0.0176,-0.2088,0.210
7.031000,0.0033,-0.0215,-0.2614,0.262
7.032000,-0.0125,-0.0301,-0.2877,0.290
7.032000,-0.0576,-0.0743,-0.3070,0.321
7.036000,-0.0537,-0.0577,-0.2992,0.309
7.041000,-0.0924,-0.0472,-0.2811,0.300
7.046000,-0.0949,-0.0535,-0.2346,0.259
7.051000,-0.1055,-0.0479,-0.2134,0.243
7.056000,-0.1350,-0.0733,-0.2030,0.255
7.061000,-0.1203,-0.0865,-0.2008,0.250
7.066000,-0.1245,-0.0722,-0.1817,0.232
7.071000,-0.1775,-0.0616,-0.2183,0.288
7.076000,-0.1908,-0.0641,-0.2082,0.290
7.091000,-0.1934,-0.0773,-0.1922,0.283
7.093000,-0.1735,-0.0405,-0.2015,0.269
7.094000,-0.1754,-0.0467,-0.2323,0.295
7.123000,-0.2083,-0.0007,-0.2666,0.338
7.124000,-0.2258,-0.0085,-0.3628,0.427
7.124000,-0.2280,0.0004,-0.3718,0.436
7.125000,-0.2077,0.0258,-0.3515,0.409
7.125000,-0.2280,0.0153,-0.3912,0.453
7.125000,-0.2150,0.0131,-0.3989,0.453
7.127000,-0.2105,0.0382,-0.4152,0.467
7.135000,-0.2143,-0.0094,-0.4137,0.466
7.137000,-0.2120,0.0277,-0.3838,0.439
7.142000,-0.2393,0.0336,-0.3695,0.441
7.147000,-0.2403,0.0276,-0.3918,0.460
7.152000,-0.2114,0.0181,-0.3472,0.407
7.157000,-0.2350,0.0100,-0.3488,0.421
7.163000,-0.2085,-0.0157,-0.3714,0.426
7.167000,-0.2428,0.0182,-0.3422,0.420
7.172000,-0.2390,-0.0479,-0.3001,0.387
7.178000,-0.2116,-0.0741,-0.3152,0.387
7.182000,-0.2355,-0.0682,-0.3243,0.407
7.188000,-0.2356,-0.0729,-0.3240,0.407
7.192000,-0.2357,-0.0694,-0.3242,0.407
7.206000,-0.2238,-0.1064,-0.2914,0.383
7.207000,-0.2441,-0.1086,-0.3317,0.426
7.208000,-0.2451,-0.0860,-0.3112,0.405
7.233000,-0.2592,-0.0992,-0.2647,0.384
7.234000,-0.2970,-0.0694,-0.2872,0.419
7.235000,-0.2978,-0.0660,-0.3057,0.432
7.235000,-0.3224,-0.0933,-0.2880,0.442
7.235000,-0.2829,-0.0776,-0.3305,0.442
7.238000,-0.2724,-0.0867,-0.3662,0.465
7.243000,-0.2644,-0.1254,-0.3668,0.469
7.248000,-0.2528,-0.1127,-0.3530,0.449
7.254000,-0.2450,-0.1333,-0.3807,0.472
7.258000,-0.2443,-0.1181,-0.4270,0.506
7.263000,-0.2543,-0.1197,-0.4398,0.522
7.269000,-0.2215,-0.0928,-0.4528,0.513
7.274000,-0.2043,-0.1030,-0.4624,0.516
7.280000,-0.2123,-0.1227,-0.4127,0.480
7.284000,-0.2141,-0.0996,-0.4257,0.487
7.289000,-0.2099,-0.1052,-0.3925,0.457
7.295000,-0.2436,-0.1073,-0.3765,0.461
7.312000,-0.2378,-0.1272,-0.3776,0.464
7.313000,-0.2485,-0.0972,-0.3564,0.445
7.314000,-0.2532,-0.0592,-0.3174,0.410
7.317000,-0.2685,-0.0903,-0.3216,0.429
7.319000,-0.2752,-0.0749,-0.2949,0.410
7.324000,-0.3010,-0.0868,-0.2707,0.414
7.351000,-0.2730,-0.1189,-0.3096,0.430
7.352000,-0.2855,-0.1187,-0.2602,0.404
7.352000,-0.3037,-0.1184,-0.2550,0.414
7.353000,-0.3088,-0.1502,-0.2925,0.451
7.354000,-0.2926,-0.1615,-0.2775,0.434
7.355000,-0.2694,-0.1573,-0.2757,0.416
7.360000,-0.2558,-0.1698,-0.2550,0.399
7.365000,-0.2684,-0.1763,-0.2892,0.432
7.369000,-0.2523,-0.1708,-0.2934,0.423
7.375000,-0.2683,-0.1500,-0.3155,0.440
7.381000,-0.2298,-0.1496,-0.3433,0.439
7.385000,-0.1905,-0.1360,-0.3259,0.401
7.390000,-0.1897,-0.1320,-0.3347,0.407
7.395000,-0.1521,-0.1720,-0.3115,0.387
7.400000,-0.0935,-0.1714,-0.3004,0.358
7.405000,-0.1066,-0.1814,-0.2910,0.359
7.411000,-0.0888,-0.2164,-0.2735,0.360
7.427000,-0.0450,-0.2332,-0.2645,0.355
7.428000,-0.0132,-0.2571,-0.2166,0.336
7.429000,0.0290,-0.2987,-0.2155,0.369
7.465000,0.0508,-0.3351,-0.2133,0.401
7.466000,0.0878,-0.3464,-0.1959,0.408
7.467000,0.1579,-0.3719,-0.2146,0.457
7.467000,0.1538,-0.3878,-0.1823,0.455
7.468000,0.2186,-0.3905,-0.2314,0.504
7.469000,0.2605,-0.3921,-0.2270,0.523
7.469000,0.3187,-0.3249,-0.2231,0.507
7.470000,0.3941,-0.2607,-0.2218,0.522
7.471000,0.4363,-0.2557,-0.1549,0.529
7.477000,0.4187,-0.1527,-0.1517,0.471
7.481000,0.4476,-0.0737,-0.1889,0.491
7.486000,0.4992,0.0220,-0.2189,0.546
7.491000,0.5017,0.0829,-0.2694,0.575
7.509000,0.5364,0.1950,-0.3250,0.657
7.512000,0.5759,0.2758,-0.3571,0.732
7.512000,0.5689,0.2955,-0.3909,0.751
7.513000,0.5632,0.3521,-0.3797,0.765
7.545000,0.5600,0.3534,-0.3656,0.756
7.546000,0.6110,0.2876,-0.3706,0.770
7.547000,0.6249,0.2157,-0.3129,0.731
7.547000,0.6189,0.0780,-0.3052,0.694
7.547000,0.6325,-0.0957,-0.2636,0.692
7.548000,0.6167,-0.2024,-0.2887,0.710
7.548000,0.5882,-0.2648,-0.2889,0.707
7.552000,0.5993,-0.3009,-0.2714,0.723
7.557000,0.6115,-0.3607,-0.3062,0.773
7.564000,0.6593,-0.4276,-0.3609,0.865
7.567000,0.7127,-0.4834,-0.4521,0.973
7.572000,0.7536,-0.4959,-0.4591,1.012
7.577000,0.7725,-0.5513,-0.5306,1.087
7.583000,0.8508,-0.5875,-0.5051,1.151
7.588000,0.9179,-0.5649,-0.4739,1.177
7.593000,0.9368,-0.6249,-0.4658,1.219
7.599000,0.9589,-0.6572,-0.3911,1.227
7.603000,1.0331,-0.6333,-0.3323,1.257
7.608000,1.0327,-0.5507,-0.2377,1.194
7.614000,1.0280,-0.5026,-0.2029,1.162
7.618000,0.9112,-0.3695,-0.1820,1.000
7.623000,0.9200,-0.2254,-0.2166,0.972
7.629000,0.9847,-0.0798,-0.3230,1.039
7.647000,1.0663,0.0671,-0.4131,1.145
7.652000,1.0980,0.1902,-0.5073,1.224
7.653000,1.1316,0.3409,-0.6270,1.338
7.654000,1.1565,0.4483,-0.7297,1.439
7.654000,1.1503,0.4947,-0.8395,1.508
7.658000,1.1407,0.4633,-0.9306,1.543
7.694000,1.1076,0.4401,-0.9503,1.524
7.695000,0.9701,0.3270,-0.9315,1.384
7.696000,0.8251,0.1755,-0.8922,1.228
7.697000,0.6867,0.0289,-0.8103,1.063
7.698000,0.6282,-0.1059,-0.7829,1.009
7.699000,0.5706,-0.2203,-0.7139,0.940
7.699000,0.5605,-0.3358,-0.6568,0.926
7.700000,0.5273,-0.3689,-0.6030,0.882
7.704000,0.5556,-0.4067,-0.5848,0.903
7.708000,0.5592,-0.4601,-0.6008,0.941
7.716000,0.5750,-0.5241,-0.5957,0.980
7.719000,0.6030,-0.5605,-0.5936,1.015
7.724000,0.6230,-0.6112,-0.5709,1.043
7.728000,0.6190,-0.6474,-0.6064,1.082
7.744000,0.5936,-0.7254,-0.6918,1.165
7.745000,0.5910,-0.7782,-0.6814,1.191
7.746000,0.6482,-0.7880,-0.6687,1.220
7.773000,0.6196,-0.7929,-0.7149,1.234
7.774000,0.6031,-0.8183,-0.7264,1.249
7.775000,0.5821,-0.8533,-0.7251,1.262
7.775000,0.5675,-0.8559,-0.7023,1.244
7.776000,0.5388,-0.8037,-0.7263,1.210
7.776000,0.5392,-0.7755,-0.7194,1.187
7.785000,0.5612,-0.7247,-0.7004,1.154
7.786000,0.5475,-0.6535,-0.7349,1.126
7.789000,0.5701,-0.6208,-0.7669,1.140
7.795000,0.5763,-0.6252,-0.7353,1.124
7.799000,0.5877,-0.6321,-0.7598,1.150
7.805000,0.6354,-0.5817,-0.7318,1.130
7.810000,0.6452,-0.6414,-0.7517,1.180
7.814000,0.6579,-0.6378,-0.6977,1.152
7.820000,0.7108,-0.6093,-0.7181,1.180
7.825000,0.6912,-0.5737,-0.7183,1.150
7.843000,0.7345,-0.5408,-0.6516,1.121
7.844000,0.7568,-0.5019,-0.6126,1.095
7.845000,0.8107,-0.4370,-0.5890,1.093
7.881000,0.8816,-0.3685,-0.5592,1.107
7.882000,0.9286,-0.3288,-0.5505,1.129
7.883000,0.9688,-0.3178,-0.5783,1.172
7.884000,1.0236,-0.2830,-0.5864,1.213
7.884000,1.0198,-0.2433,-0.5866,1.201
7.885000,1.0079,-0.1953,-0.6387,1.209
7.886000,1.0058,-0.1402,-0.6340,1.197
7.886000,1.0228,-0.1042,-0.6633,1.224
7.887000,1.0111,-0.0957,-0.7148,1.242
7.891000,0.9995,-0.0381,-0.7240,1.235
7.898000,0.9701,-0.0261,-0.7761,1.243
7.901000,0.9839,0.0565,-0.8279,1.287
7.906000,0.9538,0.0887,-0.8436,1.276
7.911000,0.9179,0.1304,-0.8988,1.291
7.917000,0.9216,0.2127,-0.9264,1.324
7.921000,0.8781,0.2924,-0.9145,1.301
7.926000,0.8600,0.4174,-0.8894,1.306
7.931000,0.8816,0.4956,-0.8820,1.342
7.937000,0.8805,0.5534,-0.8814,1.363
7.941000,0.7673,0.5741,-0.8578,1.286
7.948000,0.7701,0.6773,-0.8697,1.345
7.951000,0.8212,0.7100,-0.9373,1.434
7.957000,0.9306,0.7655,-0.9748,1.550
7.962000,1.0345,0.8078,-1.0085,1.655
7.977000,1.1212,0.8789,-1.0255,1.755
7.978000,1.2335,0.9345,-1.0201,1.853
7.979000,1.3154,1.0247,-1.0186,1.954
8.010000,1.4074,1.0503,-1.0379,2.040
8.011000,1.4999,1.1393,-1.0048,2.135
8.012000,1.5586,1.2044,-0.9302,2.178
8.012000,1.6217,1.2383,-0.8437,2.208
8.013000,1.6990,1.2675,-0.8132,2.270
8.014000,1.7572,1.3205,-0.7653,2.328
8.015000,1.7655,1.3974,-0.7514,2.374
8.024000,1.7971,1.4885,-0.7773,2.460
8.025000,1.7778,1.6165,-0.8668,2.554
8.027000,1.7564,1.6990,-0.9825,2.634
8.039000,1.7102,1.8054,-1.0548,2.701
8.040000,1.6223,1.8387,-1.1653,2.715
8.043000,1.4942,1.8302,-1.2576,2.677
8.049000,1.2716,1.8781,-1.2849,2.607
8.053000,1.1586,1.9202,-1.3499,2.618
8.058000,1.0748,2.0056,-1.3255,2.633
8.063000,1.0742,2.2908,-1.2245,2.811
8.080000,1.1396,2.5976,-1.1353,3.055
8.082000,1.2127,2.9236,-0.9992,3.319
8.083000,1.2071,3.1718,-0.9513,3.525
8.085000,1.1477,3.2694,-1.0785,3.629
8.088000,1.1515,3.2107,-1.2921,3.647
8.093000,1.1892,2.8595,-1.5373,3.457
8.118000,1.2897,2.3762,-1.7419,3.216
8.120000,1.3445,1.9486,-1.7234,2.928
8.121000,1.3599,1.6292,-1.4873,2.591
8.122000,1.3745,1.3989,-1.1179,2.257
8.123000,1.3787,1.1679,-0.7625,1.961
8.124000,1.3833,0.9328,-0.4143,1.719
8.129000,1.3864,0.5954,-0.0393,1.509
8.134000,1.3322,0.2122,0.2513,1.372
8.138000,1.2583,-0.1776,0.3967,1.331
8.144000,1.1795,-0.5274,0.5193,1.392
8.149000,1.0469,-0.8314,0.6186,1.473
8.154000,0.8536,-1.0921,0.6832,1.545
8.159000,0.6822,-1.2893,0.6923,1.615
8.165000,0.5155,-1.4268,0.6812,1.663
8.169000,0.2827,-1.5213,0.7840,1.735
8.174000,0.0609,-1.6147,0.7990,1.803
8.179000,-0.1311,-1.6926,0.7742,1.866
8.194000,-0.3011,-1.8052,0.8028,1.998
8.195000,-0.4313,-1.9633,0.8522,2.183
8.196000,-0.5803,-2.0916,0.9844,2.383
8.224000,-0.7182,-2.1996,1.1969,2.605
8.226000,-0.8266,-2.3663,1.4386,2.890
8.227000,-0.9374,-2.4804,1.6745,3.136
8.228000,-1.0370,-2.5551,1.9077,3.353
8.229000,-1.1858,-2.5666,2.0934,3.518
8.231000,-1.3621,-2.4647,2.1699,3.555
8.232000,-1.5278,-2.3464,2.1840,3.551
8.238000,-1.6703,-2.1865,2.1894,3.516
8.240000,-1.8242,-1.9767,2.2111,3.482
8.245000,-1.9670,-1.7266,2.2181,3.431
8.250000,-2.0405,-1.4564,2.1984,3.334
8.255000,-2.0590,-1.2308,2.2316,3.276
8.260000,-2.1358,-1.0832,2.1373,3.210
8.265000,-2.2177,-0.8223,2.0579,3.135
8.270000,-2.3370,-0.5307,1.9924,3.117
8.275000,-2.4126,-0.1641,1.8770,3.061
8.280000,-2.4631,0.2366,1.8670,3.100
8.285000,-2.5667,0.6131,1.9478,3.280
8.290000,-2.6092,1.0037,2.0264,3.453
8.295000,-2.5493,1.3739,2.1607,3.613
8.309000,-2.4630,1.5720,2.1220,3.611
8.310000,-2.2185,1.6044,1.9691,3.372
8.312000,-1.8258,1.5510,1.7341,2.957
8.336000,-1.4074,1.4595,1.5003,2.522
8.338000,-1.0657,1.4531,1.3034,2.224
8.338000,-0.8124,1.4012,1.1281,1.974
8.339000,-0.6060,1.3205,0.8428,1.680
8.339000,-0.4258,1.2459,0.6303,1.460
8.341000,-0.2388,1.1199,0.4482,1.230
8.346000,-0.0938,1.0034,0.2976,1.051
8.351000,0.0809,0.8678,0.0801,0.875
8.356000,0.2222,0.6830,-0.0597,0.721
8.361000,0.2992,0.4982,-0.2165,0.620
8.366000,0.3705,0.3588,-0.3042,0.599
8.371000,0.4038,0.1798,-0.4021,0.597
8.376000,0.4385,0.0055,-0.4274,0.612
8.382000,0.4232,-0.1713,-0.3969,0.605
8.387000,0.4418,-0.3875,-0.3760,0.698
8.392000,0.4079,-0.6191,-0.3765,0.832
8.397000,0.3541,-0.8100,-0.2880,0.930
8.413000,0.3114,-0.9684,-0.2862,1.057
8.415000,0.2834,-1.1387,-0.2439,1.198
8.415000,0.2592,-1.2466,-0.2315,1.294
8.418000,0.2410,-1.3603,-0.2212,1.399
8.422000,0.2039,-1.4918,-0.3042,1.536
8.427000,0.1430,-1.5706,-0.3407,1.613
8.452000,0.1119,-1.5847,-0.2257,1.605
8.454000,0.0674,-1.6382,-0.1383,1.645
8.455000,-0.0108,-1.7393,-0.0842,1.741
8.455000,-0.0450,-1.8067,-0.0907,1.810
8.456000,-0.1608,-1.8416,-0.1242,1.853
8.457000,-0.2554,-1.7998,-0.1691,1.826
8.463000,-0.3567,-1.7112,-0.1373,1.753
8.469000,-0.4767,-1.5926,-0.1555,1.670
8.473000,-0.4975,-1.4177,-0.1774,1.513
8.478000,-0.5087,-1.3156,-0.2366,1.430
8.484000,-0.5331,-1.2279,-0.2865,1.369
8.488000,-0.5726,-1.1437,-0.2951,1.313
8.493000,-0.6045,-0.9889,-0.3066,1.199
8.500000,-0.6169,-0.8474,-0.4178,1.128
8.504000,-0.6326,-0.7393,-0.4687,1.080
8.508000,-0.6240,-0.6516,-0.5264,1.045
8.513000,-0.5846,-0.6142,-0.6182,1.049
8.530000,-0.5833,-0.5123,-0.6577,1.018
8.531000,-0.5616,-0.3998,-0.6749,0.965
8.532000,-0.5876,-0.3485,-0.7086,0.984
8.534000,-0.5604,-0.3044,-0.7243,0.965
8.538000,-0.4850,-0.3070,-0.7312,0.930
8.543000,-0.4270,-0.2834,-0.7986,0.949
8.568000,-0.3551,-0.2874,-0.8115,0.931
8.569000,-0.2859,-0.2557,-0.8297,0.914
8.570000,-0.2506,-0.2911,-0.8305,0.915
8.570000,-0.1809,-0.3002,-0.8270,0.898
8.571000,-0.0878,-0.3346,-0.8006,0.872
8.574000,-0.0561,-0.3512,-0.8669,0.937
8.579000,-0.0235,-0.3894,-0.8981,0.979
8.584000,-0.0107,-0.3978,-0.8837,0.969
8.589000,0.0410,-0.4075,-0.9531,1.037
8.594000,0.0213,-0.4389,-0.9566,1.053
8.615000,0.0474,-0.4045,-0.9268,1.012
8.618000,0.0713,-0.3941,-0.9940,1.072
8.619000,0.0965,-0.3347,-0.9750,1.035
8.619000,0.0858,-0.2826,-1.0122,1.054
8.620000,0.0678,-0.2269,-1.0206,1.048
8.625000,0.0615,-0.1030,-0.9952,1.002
8.629000,0.0427,-0.0042,-1.0410,1.042
8.649000,0.0375,0.0302,-1.0969,1.098
8.651000,-0.0103,0.1006,-1.2176,1.222
8.652000,-0.0169,0.1820,-1.3073,1.320
8.652000,-0.0435,0.2350,-1.3779,1.398
8.655000,-0.0396,0.3240,-1.4209,1.458
8.660000,-0.0734,0.4047,-1.4220,1.480
8.666000,-0.1221,0.5132,-1.3881,1.485
8.670000,-0.2213,0.6038,-1.4007,1.541
8.675000,-0.2488,0.6754,-1.4082,1.582
8.680000,-0.3090,0.7005,-1.4536,1.643
8.685000,-0.3223,0.7591,-1.5624,1.767
8.690000,-0.3973,0.8176,-1.6886,1.918
8.695000,-0.5316,0.8437,-1.7239,1.991
8.701000,-0.6056,0.8445,-1.7725,2.055
8.705000,-0.6983,0.8596,-1.7998,2.113
8.711000,-0.8109,0.9414,-1.7652,2.159
8.730000,-0.9014,1.0004,-1.7033,2.171
8.733000,-0.9548,1.0247,-1.6629,2.174
8.734000,-1.0224,1.0262,-1.6210,2.174
8.735000,-1.0650,1.0494,-1.5681,2.167
8.736000,-1.0789,1.0606,-1.5854,2.191
8.741000,-1.0489,1.0959,-1.6176,2.218
8.745000,-1.0088,1.1470,-1.6120,2.221
8.771000,-0.9335,1.1911,-1.6869,2.266
8.773000,-0.7803,1.2952,-1.7536,2.315
8.774000,-0.5510,1.4452,-1.7115,2.307
8.775000,-0.2493,1.8107,-1.4575,2.338
8.776000,0.1314,2.4493,-1.0865,2.683
8.777000,0.5914,3.1636,-0.7552,3.306
8.782000,0.9040,3.8152,-0.5099,3.954
8.786000,1.1695,4.2191,-0.3646,4.393
8.792000,1.4948,4.3086,-0.2540,4.568
8.797000,1.7651,4.2378,-0.2324,4.597
8.801000,1.9693,4.0303,-0.2834,4.495
8.807000,2.0738,3.7993,-0.4166,4.348
8.811000,2.0875,3.5274,-0.4966,4.129
8.832000,2.0363,3.2010,-0.4475,3.820
8.834000,1.9366,2.9355,-0.3674,3.536
8.836000,1.7528,2.5835,-0.2279,3.130
8.837000,1.4526,2.1016,-0.0220,2.555
8.842000,1.0871,1.5547,0.3469,1.929
8.843000,0.7348,1.1034,0.7060,1.502
8.846000,0.4319,0.6893,0.9947,1.285
8.865000,0.2158,0.3130,1.1683,1.229
8.866000,0.0647,0.1181,1.3122,1.319
8.867000,-0.0616,-0.0025,1.3649,1.366
8.867000,-0.1419,-0.0621,1.4009,1.409
8.872000,-0.1623,-0.1139,1.4094,1.423
8.877000,-0.2035,-0.2357,1.3779,1.413
8.884000,-0.1805,-0.4369,1.2667,1.352
8.888000,-0.1938,-0.7413,1.1400,1.374
8.893000,-0.2379,-1.0931,1.1334,1.592
8.898000,-0.2514,-1.3751,1.1789,1.829
8.909000,-0.3275,-1.5901,1.3189,2.092
8.910000,-0.3129,-1.7943,1.4777,2.345
8.912000,-0.2608,-1.8705,1.5643,2.452
8.920000,-0.1523,-1.9612,1.7076,2.605
8.923000,-0.0482,-1.9970,1.8752,2.740
8.928000,0.0262,-1.9217,2.0057,2.778
8.934000,0.1185,-1.8456,2.1064,2.803
8.938000,0.2202,-1.7051,2.1821,2.778
8.943000,0.2882,-1.4526,2.2146,2.664
8.948000,0.3662,-1.2399,2.1453,2.505
8.962000,0.5010,-1.0621,2.1333,2.435
8.963000,0.6245,-0.8453,2.0252,2.282
8.964000,0.6807,-0.6098,1.8676,2.079
8.990000,0.7370,-0.3798,1.8338,2.012
8.991000,0.8222,-0.1874,1.7334,1.928
8.991000,0.9319,-0.0149,1.6472,1.893
8.992000,0.9673,0.1951,1.6531,1.925
8.992000,0.9540,0.4389,1.6846,1.985
8.993000,0.8790,0.7549,1.7541,2.102
8.999000,0.6875,1.0354,1.8074,2.194
9.004000,0.3505,1.3440,1.8330,2.300
9.009000,-0.0416,1.5051,1.7783,2.330
9.014000,-0.3784,1.5133,1.5587,2.205
9.019000,-0.5660,1.3556,1.2815,1.949
9.024000,-0.6569,1.1276,0.9580,1.619
9.029000,-0.7347,0.8569,0.7312,1.345
9.044000,-0.7522,0.5756,0.6699,1.160
9.045000,-0.7369,0.2979,0.6282,1.013
9.046000,-0.7276,0.1003,0.6492,0.980
9.074000,-0.7508,-0.1261,0.6924,1.029
9.075000,-0.6737,-0.3262,0.7700,1.074
9.075000,-0.6183,-0.5288,0.8344,1.165
9.076000,-0.5442,-0.7861,0.7726,1.229
9.076000,-0.4980,-1.0170,0.7053,1.334
9.076000,-0.4332,-1.1665,0.7126,1.434
9.080000,-0.4549,-1.3601,0.6195,1.562
9.086000,-0.4187,-1.5404,0.5936,1.703
9.090000,-0.3929,-1.7099,0.6190,1.860
9.095000,-0.4040,-1.9138,0.6085,2.048
9.101000,-0.4201,-2.0587,0.6111,2.188
9.105000,-0.3853,-2.1962,0.7148,2.342
9.110000,-0.3390,-2.3537,0.7919,2.506
9.115000,-0.2237,-2.4558,0.8283,2.601
9.120000,-0.1830,-2.4859,0.8879,2.646
9.125000,-0.1576,-2.5196,0.9538,2.699
9.130000,-0.1906,-2.4359,0.9786,2.632
9.135000,-0.1855,-2.2768,1.0711,2.523
9.141000,-0.1842,-2.0914,1.1011,2.371
9.146000,-0.1178,-1.9251,0.9897,2.168
9.152000,-0.0243,-1.7922,0.9126,2.011
9.155000,0.0306,-1.6355,0.8412,1.839
9.161000,0.0672,-1.4548,0.7129,1.622
9.166000,0.0986,-1.2324,0.6219,1.384
9.183000,0.0314,-1.0676,0.5369,1.195
9.185000,-0.0116,-0.8274,0.4756,0.954
9.185000,0.0700,-0.6888,0.4154,0.807
9.188000,0.1646,-0.5478,0.3624,0.677
9.192000,0.2569,-0.4151,0.3703,0.613
9.196000,0.3796,-0.2548,0.3004,0.547
9.222000,0.5015,-0.1258,0.2497,0.574
9.223000,0.5739,-0.0219,0.1211,0.587
9.224000,0.6615,0.0424,-0.0700,0.667
9.225000,0.7620,0.1759,-0.1662,0.800
9.225000,0.8525,0.2171,-0.1837,0.899
9.226000,0.9852,0.2500,-0.0888,1.020
9.232000,1.1012,0.2232,-0.0851,1.127
9.237000,1.2096,0.1666,-0.1712,1.233
9.242000,1.3020,0.1437,-0.2906,1.342
9.247000,1.3787,0.1017,-0.3963,1.438
9.252000,1.4264,0.0564,-0.4067,1.484
9.257000,1.4896,0.0530,-0.3491,1.531
9.261000,1.4988,0.0499,-0.3604,1.542
9.278000,1.5079,0.0553,-0.4562,1.576
9.280000,1.5126,0.1110,-0.5762,1.622
9.280000,1.4757,0.2075,-0.6009,1.607
9.282000,1.4020,0.2944,-0.6704,1.582
9.305000,1.2777,0.3708,-0.7557,1.530
9.306000,1.1959,0.3888,-0.9325,1.565
9.307000,1.1230,0.4250,-1.0804,1.615
9.307000,1.1178,0.5200,-1.2191,1.734
9.308000,1.0869,0.5444,-1.3253,1.798
9.313000,1.0548,0.5186,-1.2748,1.734
9.319000,1.0599,0.5167,-1.2224,1.698
9.322000,1.0536,0.5135,-1.1380,1.634
9.328000,1.0490,0.4456,-1.0254,1.533
9.333000,1.0915,0.4087,-0.9319,1.492
9.337000,1.1776,0.3922,-0.8418,1.500
9.343000,1.2460,0.3433,-0.8685,1.557
9.348000,1.3074,0.2851,-0.8946,1.610
9.352000,1.3582,0.2459,-0.9286,1.664
9.358000,1.3852,0.1961,-0.8968,1.662
9.363000,1.4310,0.1093,-0.9179,1.704
9.368000,1.4940,0.1184,-0.8967,1.746
9.373000,1.6100,0.1084,-0.8058,1.804
9.379000,1.6905,0.0422,-0.7291,1.841
9.383000,1.7146,0.0502,-0.6580,1.837
9.400000,1.7003,0.0999,-0.6031,1.807
9.401000,1.6157,0.2165,-0.6382,1.751
9.402000,1.4287,0.3365,-0.7041,1.628
9.405000,1.2764,0.5271,-0.7585,1.576
9.409000,1.1014,0.7964,-0.8331,1.594
9.413000,0.9036,1.0765,-0.8978,1.668
9.436000,0.7195,1.6006,-0.8404,1.946
9.437000,0.6375,2.3543,-0.7095,2.540
9.438000,0.5795,3.1257,-0.8450,3.289
9.439000,0.5546,4.0430,-1.0508,4.214
9.440000,0.4904,4.8861,-1.2320,5.063
9.444000,0.5321,5.4244,-1.4489,5.640
9.449000,0.6647,5.5179,-1.6671,5.802
9.454000,0.8811,5.1955,-1.7525,5.553
9.459000,1.0086,4.4234,-1.7502,4.863
9.464000,0.9305,3.4945,-1.6544,3.977
9.479000,0.6673,2.7530,-1.3702,3.147
9.481000,0.4035,2.2866,-0.9265,2.500
9.482000,0.2627,1.9053,-0.3644,1.958
9.506000,0.3363,1.4470,0.1882,1.497
9.507000,0.5031,1.0468,0.6774,1.345
9.508000,0.6632,0.7167,1.0015,1.399
9.508000,0.7503,0.3665,1.2596,1.511
9.509000,0.7372,0.0931,1.4714,1.648
9.510000,0.6196,-0.1444,1.6483,1.767
9.515000,0.4305,-0.3868,1.7540,1.847
9.520000,0.1782,-0.6268,1.8084,1.922
9.525000,-0.0562,-0.8872,1.8735,2.074
9.530000,-0.2923,-1.1093,1.9382,2.252
9.535000,-0.5202,-1.2740,1.9878,2.418
9.540000,-0.6562,-1.6082,2.0305,2.672
9.545000,-0.7420,-1.9947,2.0039,2.923
9.550000,-0.8225,-2.2651,2.1262,3.214
9.555000,-0.9102,-2.4173,2.2712,3.440
9.560000,-0.9354,-2.4875,2.3683,3.560
9.565000,-1.0074,-2.6265,2.5811,3.818
9.571000,-1.1461,-2.6957,2.7781,4.037
9.575000,-1.2806,-2.6581,2.9297,4.158
9.580000,-1.4554,-2.6033,3.1512,4.339
9.598000,-1.6337,-2.4558,3.3076,4.432
9.600000,-1.7585,-2.2599,3.5517,4.562
9.601000,-1.9258,-1.9759,3.7793,4.679
9.603000,-2.0619,-1.6430,3.8555,4.671
9.634000,-2.1997,-1.2682,3.8521,4.614
9.636000,-2.3520,-0.7686,3.7347,4.480
9.637000,-2.5512,-0.3139,3.5228,4.361
9.638000,-2.7519,0.0522,3.2748,4.278
9.639000,-2.8709,0.3695,2.9618,4.141
9.640000,-2.9578,0.6633,2.5848,3.984
9.642000,-2.9481,0.9062,2.2452,3.815
9.643000,-2.8192,0.9821,1.9290,3.554
9.646000,-2.4459,0.9388,1.5501,3.044
9.652000,-1.9362,0.8562,1.0934,2.383
9.656000,-1.5092,0.7564,0.7570,1.850
9.661000,-1.0986,0.7469,0.5010,1.420
9.666000,-0.7696,0.7125,0.2183,1.071
9.672000,-0.4551,0.5524,0.0691,0.719
9.676000,-0.2036,0.4675,-0.0324,0.511
9.681000,0.0567,0.2686,-0.1310,0.304
9.686000,0.2952,0.1029,-0.2172,0.381
9.691000,0.4981,0.0058,-0.2673,0.565
9.696000,0.6434,-0.0788,-0.2467,0.694
9.702000,0.8076,-0.1714,-0.2994,0.878
9.706000,0.9066,-0.2063,-0.3149,0.982
9.712000,0.9068,-0.3054,-0.2501,0.989
9.717000,0.9206,-0.3729,-0.2657,1.028
9.735000,0.9585,-0.3716,-0.2073,1.049
9.736000,0.9586,-0.4068,-0.1074,1.047
9.737000,0.9731,-0.4650,-0.0906,1.082
9.740000,0.8988,-0.6309,-0.0422,1.099
9.745000,0.8647,-0.8184,0.0048,1.191
9.748000,0.7661,-1.0297,-0.0019,1.283
9.776000,0.6990,-1.1776,0.0052,1.369
9.777000,0.6133,-1.2516,0.0460,1.395
9.778000,0.4769,-1.3126,0.0970,1.400
9.778000,0.3067,-1.3621,0.1091,1.400
9.779000,0.0872,-1.3795,0.1169,1.387
9.779000,-0.0634,-1.3901,0.1038,1.395
9.783000,-0.2445,-1.3806,0.0092,1.402
9.792000,-0.3776,-1.3044,-0.0629,1.359
9.793000,-0.4832,-1.2535,-0.1452,1.351
9.798000,-0.5795,-1.1897,-0.3033,1.358
9.805000,-0.6885,-1.0722,-0.4358,1.347
9.809000,-0.7055,-0.8974,-0.4895,1.242
9.814000,-0.6857,-0.7527,-0.6104,1.187
9.832000,-0.6292,-0.5890,-0.6669,1.090
9.834000,-0.5951,-0.5042,-0.7527,1.084
9.834000,-0.5605,-0.4351,-0.8055,1.073
9.835000,-0.4726,-0.3599,-0.8456,1.033
9.863000,-0.4643,-0.3098,-0.8923,1.053
9.864000,-0.4133,-0.2167,-0.8577,0.976
9.864000,-0.3676,-0.1726,-0.8126,0.908
9.865000,-0.3386,-0.1298,-0.8418,0.917
9.865000,-0.3336,-0.0893,-0.8362,0.905
9.866000,-0.3284,-0.0813,-0.8293,0.896
9.876000,-0.3325,-0.0421,-0.8773,0.939
9.877000,-0.3150,-0.0079,-0.9244,0.977
9.878000,-0.2867,-0.0408,-1.0163,1.057
9.884000,-0.3336,-0.0318,-1.0741,1.125
9.889000,-0.4680,-0.0348,-1.2334,1.320
9.894000,-0.3641,0.0734,-1.2676,1.321
9.899000,-0.2238,0.1109,-1.1684,1.195
9.904000,-0.1924,0.0825,-1.1087,1.128
9.909000,-0.2169,0.0744,-1.1751,1.197
9.914000,-0.1537,-0.0235,-1.1268,1.137
9.930000,-0.0999,-0.0961,-1.0292,1.038
9.931000,-0.0146,-0.1411,-0.9640,0.974
9.932000,0.0256,-0.2326,-0.9375,0.966
9.934000,0.1093,-0.3118,-0.9447,1.001
9.957000,0.2043,-0.3705,-0.9347,1.026
9.958000,0.2720,-0.3943,-0.9186,1.036
9.959000,0.3183,-0.4309,-0.9272,1.071
9.959000,0.3709,-0.4758,-1.0245,1.189
9.960000,0.4225,-0.4954,-1.0744,1.256
9.965000,0.5027,-0.5387,-1.1202,1.341
9.970000,0.5766,-0.5853,-1.1837,1.441
9.975000,0.6119,-0.5660,-1.2799,1.527
9.980000,0.6289,-0.6039,-1.3277,1.588
9.986000,0.6531,-0.6478,-1.3924,1.669
9.990000,0.5292,-0.6272,-1.4394,1.657
9.995000,0.3627,-0.5781,-1.3959,1.554
10.001000,0.2146,-0.5422,-1.3564,1.476
10.005000,-0.0635,-0.4850,-1.3469,1.433
10.011000,-0.2893,-0.3729,-1.2836,1.368
10.015000,-0.5457,-0.3124,-1.2796,1.426
10.033000,-0.7769,-0.2411,-1.2212,1.467
10.034000,-0.9231,-0.1267,-1.1689,1.495
10.034000,-1.0326,0.0058,-1.1431,1.540
10.038000,-1.1291,0.1742,-1.0361,1.542
10.040000,-1.1307,0.3068,-1.0215,1.554
10.045000,-1.0836,0.3989,-0.9868,1.519
10.051000,-1.0181,0.4756,-0.9201,1.452
10.077000,-0.8933,0.6433,-0.9207,1.435
10.078000,-0.7469,1.0837,-0.8661,1.576
10.079000,-0.4419,1.8136,-0.5923,1.958
10.079000,0.0182,2.7469,-0.4157,2.778
10.080000,0.5596,3.7965,-0.3681,3.855
10.081000,0.9519,4.7916,-0.4380,4.905
10.088000,1.3240,5.4861,-0.5278,5.668
10.091000,1.7098,5.7726,-0.5588,6.046
10.097000,2.0771,5.6339,-0.4970,6.025
10.102000,2.2236,5.4172,-0.3095,5.864
10.107000,2.0961,5.1615,-0.0906,5.572
10.112000,1.7200,4.7961,0.1365,5.097
10.117000,1.0204,4.2387,0.4518,4.383
10.122000,0.5236,3.5736,0.8236,3.704
10.127000,0.3766,2.7401,1.2120,3.020
10.132000,0.5056,1.8136,1.5429,2.434
10.147000,0.6746,1.0329,1.7985,2.181
10.148000,0.6746,0.5278,2.1012,2.269
10.149000,0.5410,0.2033,2.3541,2.424
10.178000,0.5066,-0.1184,2.4089,2.464
10.179000,0.4354,-0.3260,2.2762,2.340
10.180000,0.4066,-0.4179,1.9463,2.032
10.180000,0.3620,-0.5302,1.6300,1.752
10.181000,0.3901,-0.6219,1.2717,1.468
10.181000,0.4199,-0.6629,0.9876,1.261
10.182000,0.4840,-0.7606,0.7431,1.168
10.190000,0.5764,-0.8456,0.5982,1.185
10.193000,0.6665,-0.8905,0.6414,1.284
10.198000,0.6149,-0.8680,0.7182,1.283
10.204000,0.5858,-0.7532,0.7965,1.243
10.208000,0.5182,-0.6203,0.9657,1.259
10.213000,0.4816,-0.5901,1.0937,1.333
10.218000,0.4329,-0.6149,1.1620,1.384
10.223000,0.4718,-0.6697,1.2251,1.474
10.228000,0.5031,-0.7786,1.2619,1.566
10.233000,0.5574,-0.8546,1.3268,1.674
10.247000,0.5478,-0.8526,1.4482,1.768
10.248000,0.4838,-0.8443,1.5324,1.815
10.248000,0.3980,-0.7832,1.6367,1.858
10.272000,0.2134,-0.6454,1.7875,1.912
10.273000,0.2024,-0.5168,1.8834,1.964
10.274000,0.2236,-0.3591,1.9045,1.951
10.275000,0.2544,-0.1554,1.9470,1.970
10.275000,0.2146,0.0271,2.0030,2.015
10.279000,0.1616,0.2557,2.0587,2.081
10.284000,0.1130,0.4696,2.0492,2.105
10.289000,-0.0068,0.6606,1.9811,2.088
10.294000,-0.0427,0.8122,1.8705,2.040
10.299000,-0.1409,0.8861,1.6873,1.911
10.304000,-0.2868,0.9052,1.4589,1.741
10.309000,-0.5059,0.7930,1.2628,1.575
10.314000,-0.7204,0.6286,0.9548,1.351
10.321000,-0.8402,0.4515,0.7974,1.243
10.324000,-0.9870,0.2594,0.6984,1.237
10.329000,-1.0687,0.0843,0.6155,1.236
10.334000,-1.0721,-0.0928,0.5330,1.201
10.339000,-1.0170,-0.2781,0.4678,1.153
10.345000,-0.9750,-0.4263,0.5261,1.187
10.350000,-0.9594,-0.5771,0.5359,1.241
10.368000,-0.9465,-0.7507,0.5203,1.315
10.369000,-0.8991,-0.8850,0.4637,1.344
10.370000,-0.8305,-1.0743,0.4655,1.435
10.371000,-0.7608,-1.1860,0.4180,1.470
10.375000,-0.6903,-1.4245,0.3514,1.621
10.379000,-0.5715,-1.6365,0.2920,1.758
10.384000,-0.4849,-1.8100,0.3162,1.900
10.403000,-0.3909,-1.9643,0.3449,2.032
10.404000,-0.2961,-2.1278,0.3652,2.179
10.405000,-0.2475,-2.2503,0.3758,2.295
10.406000,-0.1182,-2.4191,0.4268,2.459
10.410000,0.0127,-2.5540,0.4536,2.594
10.415000,0.1041,-2.6263,0.5160,2.679
10.421000,0.1908,-2.6648,0.5830,2.735
10.425000,0.2766,-2.6815,0.6198,2.766
10.430000,0.4367,-2.6357,0.6654,2.753
10.436000,0.5648,-2.5539,0.6957,2.707
10.440000,0.6278,-2.5043,0.6172,2.655
10.445000,0.6929,-2.4069,0.5280,2.560
10.450000,0.7762,-2.2631,0.4761,2.439
10.465000,0.7426,-2.0538,0.4083,2.222
10.466000,0.6510,-1.7707,0.3224,1.914
10.467000,0.5201,-1.5252,0.1702,1.620
10.495000,0.4383,-1.2585,0.0845,1.335
10.496000,0.3874,-1.0806,-0.0007,1.148
10.496000,0.3340,-0.9615,-0.0889,1.022
10.497000,0.2976,-0.8403,-0.2052,0.915
10.497000,0.2444,-0.7122,-0.2746,0.801
10.498000,0.2485,-0.6081,-0.2851,0.716
10.501000,0.3649,-0.5222,-0.2748,0.694
10.507000,0.4506,-0.4032,-0.2715,0.663
10.511000,0.5212,-0.2534,-0.2858,0.646
10.516000,0.4967,-0.1351,-0.1710,0.542
10.521000,0.5787,-0.0684,-0.0366,0.584
10.526000,0.7296,-0.0183,0.0655,0.733
10.532000,0.7890,0.0378,0.1456,0.803
10.538000,0.9071,0.0645,0.1411,0.920
10.541000,0.8752,0.1023,0.1147,0.889
10.547000,0.8091,0.2384,0.0903,0.848
10.552000,0.9295,0.3941,0.0728,1.012
10.557000,1.0346,0.5272,-0.0252,1.161
10.562000,1.1601,0.6247,-0.1552,1.327
10.567000,1.2414,0.6960,-0.3545,1.467
10.584000,1.3134,0.8059,-0.4907,1.617
10.585000,1.3772,0.9038,-0.5952,1.752
10.586000,1.4162,0.9576,-0.6994,1.847
10.625000,1.4567,1.0307,-0.9029,2.000
10.626000,1.4990,1.0642,-1.0647,2.124
10.627000,1.5399,1.0642,-1.1349,2.189
10.628000,1.4865,1.0844,-1.2236,2.210
10.629000,1.3523,1.1654,-1.2122,2.158
10.631000,1.1804,1.2438,-1.1128,2.044
10.631000,1.0363,1.2360,-1.0769,1.939
10.633000,0.9046,1.2067,-1.0608,1.844
10.634000,0.8844,1.1739,-1.0297,1.795
10.634000,0.9193,1.0934,-1.0121,1.751
10.638000,1.0304,1.0060,-1.0341,1.773
10.644000,1.1960,0.8950,-1.0154,1.806
10.648000,1.3921,0.7306,-0.9951,1.861
10.653000,1.5052,0.5953,-0.9947,1.900
10.658000,1.5890,0.5035,-0.9173,1.903
10.664000,1.6295,0.4084,-0.7759,1.850
10.668000,1.6478,0.3378,-0.6465,1.802
10.685000,1.6444,0.2880,-0.5299,1.752
10.687000,1.5763,0.3749,-0.4774,1.689
10.687000,1.4647,0.8316,-0.3714,1.725
10.691000,1.3127,1.6245,-0.3503,2.118
10.693000,1.2176,2.4842,-0.4348,2.801
10.698000,1.2026,3.3106,-0.6425,3.580
10.727000,1.1332,3.9757,-0.9300,4.237
10.729000,1.0936,4.3374,-1.3038,4.659
10.731000,1.2621,4.3038,-1.8487,4.851
10.732000,1.4204,3.8915,-2.2348,4.707
10.733000,1.6004,3.3229,-2.3200,4.357
10.735000,1.5712,2.9392,-2.1454,3.964
10.736000,1.3634,2.7283,-1.6635,3.474
10.740000,1.0873,2.5810,-1.0604,2.995
10.744000,0.8593,2.3973,-0.5062,2.597
10.750000,0.7082,2.1270,0.0941,2.244
10.755000,0.5697,1.7475,0.5659,1.923
10.759000,0.4446,1.2374,0.8561,1.569
10.764000,0.2856,0.7486,1.1281,1.384
10.770000,0.0818,0.4019,1.2204,1.288
10.774000,-0.1229,0.0478,1.2771,1.284
10.779000,-0.3467,-0.3160,1.3716,1.450
10.784000,-0.5653,-0.5816,1.4360,1.649
10.802000,-0.7948,-0.7825,1.5743,1.929
10.803000,-0.8798,-1.1887,1.6392,2.208
10.804000,-0.9389,-1.5908,1.7321,2.532
10.806000,-0.9635,-1.9375,1.8274,2.832
10.809000,-0.9905,-2.3234,1.9881,3.214
10.815000,-1.0802,-2.5478,2.1872,3.527
10.819000,-1.1380,-2.7808,2.2930,3.780
10.831000,-1.1755,-2.9220,2.4045,3.962
10.833000,-1.2496,-3.0529,2.5287,4.156
10.835000,-1.3339,-3.0372,2.6968,4.275
10.843000,-1.4848,-2.9719,2.7691,4.325
10.845000,-1.5787,-2.8667,2.8925,4.368
10.850000,-1.6503,-2.7000,2.9649,4.336
10.855000,-1.7857,-2.4550,3.0369,4.294
10.861000,-1.9180,-2.0468,3.1026,4.183
10.865000,-2.0779,-1.5028,3.1533,4.064
10.870000,-2.2605,-0.9232,3.2142,4.036
10.875000,-2.4494,-0.3148,3.2396,4.074
10.881000,-2.6110,0.1408,3.2102,4.140
10.886000,-2.7551,0.5972,3.1638,4.238
10.899000,-2.8939,0.9925,3.0434,4.315
10.901000,-2.9308,1.1438,2.8179,4.224
10.902000,-2.9087,1.2570,2.5310,4.055
10.931000,-2.8201,1.3117,2.2755,3.854
10.932000,-2.5629,1.3387,2.0121,3.523
10.933000,-2.1280,1.3057,1.6817,3.010
10.934000,-1.6759,1.2375,1.3264,2.470
10.935000,-1.3255,1.1866,0.9908,2.036
10.936000,-1.0391,1.1624,0.6958,1.707
10.937000,-0.7146,1.0068,0.3662,1.288
10.943000,-0.4644,0.8502,0.1043,0.974
10.946000,-0.2888,0.6614,-0.1649,0.740
10.951000,-0.0917,0.4127,-0.2498,0.491
10.956000,0.0471,0.1734,-0.2567,0.313
10.962000,0.1327,0.0702,-0.2207,0.267
10.967000,0.1940,-0.0548,-0.1342,0.242
10.972000,0.2552,-0.2303,0.0055,0.344
10.977000,0.2975,-0.2998,0.0754,0.429
10.982000,0.3951,-0.3732,0.2138,0.584
10.987000,0.4469,-0.4516,0.3374,0.719
10.992000,0.4960,-0.5014,0.4350,0.829
10.997000,0.6175,-0.6588,0.4614,1.014
11.002000,0.7206,-0.8304,0.3594,1.157
11.020000,0.7485,-0.9732,0.2948,1.263
11.022000,0.7406,-1.1530,0.1543,1.379
11.023000,0.7615,-1.2657,0.0742,1.479
11.024000,0.7631,-1.3198,-0.0426,1.525
11.027000,0.7399,-1.3561,-0.1554,1.553
11.033000,0.6511,-1.3628,-0.2431,1.530
11.037000,0.5753,-1.3480,-0.3170,1.500
11.064000,0.5076,-1.2916,-0.3679,1.436
11.065000,0.3906,-1.2139,-0.4180,1.342
11.066000,0.1943,-1.1091,-0.3996,1.195
11.066000,-0.0548,-0.9963,-0.3201,1.048
11.067000,-0.2434,-0.8897,-0.3134,0.974
11.068000,-0.4342,-0.8467,-0.3071,1.000
11.078000,-0.5401,-0.7653,-0.3449,0.998
11.079000,-0.6340,-0.7008,-0.4084,1.029
11.083000,-0.7709,-0.6122,-0.4923,1.101
11.091000,-0.8648,-0.4854,-0.5654,1.142
11.093000,-0.9375,-0.3597,-0.6646,1.204
11.098000,-0.9606,-0.2399,-0.7228,1.226
11.104000,-0.9555,-0.0948,-0.7199,1.200
11.109000,-0.9272,-0.0298,-0.7492,1.192
11.113000,-0.9226,-0.0148,-0.8227,1.236
11.118000,-0.8480,-0.0175,-0.8426,1.196
11.135000,-0.7668,-0.0105,-0.8451,1.141
11.136000,-0.6989,-0.0405,-0.9033,1.143
11.136000,-0.5999,-0.1027,-0.8691,1.061
11.165000,-0.5280,-0.2199,-0.8692,1.041
11.166000,-0.5128,-0.2655,-0.8573,1.034
11.167000,-0.4738,-0.3113,-0.8870,1.053
11.168000,-0.4541,-0.3596,-0.9177,1.085
11.168000,-0.4764,-0.3329,-1.0043,1.160
11.169000,-0.5014,-0.3494,-1.1100,1.267
11.169000,-0.4545,-0.3947,-1.2097,1.351
11.179000,-0.4553,-0.4269,-1.3578,1.494
11.180000,-0.4344,-0.4771,-1.4795,1.614
11.184000,-0.3838,-0.4567,-1.5080,1.622
11.193000,-0.4342,-0.3944,-1.5825,1.688
11.194000,-0.2624,-0.3021,-1.4952,1.548
11.199000,-0.0750,-0.3174,-1.3676,1.406
11.204000,0.0057,-0.2441,-1.2099,1.234
11.209000,0.0599,-0.1852,-1.0963,1.113
11.215000,0.1365,-0.1466,-1.0594,1.078
11.220000,0.2641,-0.1389,-0.9454,0.991
11.241000,0.3877,-0.1597,-0.9413,1.030
11.243000,0.5373,-0.1396,-1.0014,1.145
11.244000,0.6032,-0.0740,-1.0296,1.196
11.245000,0.7014,-0.0968,-1.0885,1.299
11.246000,0.7890,-0.1578,-1.1817,1.430
11.250000,0.7913,-0.1602,-1.3863,1.604
11.283000,0.6129,-0.1018,-1.5020,1.625
11.285000,0.4104,-0.0377,-1.6383,1.689
11.286000,0.1882,0.0275,-1.7385,1.749
11.286000,-0.0346,0.1463,-1.8162,1.822
11.288000,-0.3062,0.2338,-1.8035,1.844
11.289000,-0.5036,0.3165,-1.7437,1.842
11.290000,-0.6857,0.3669,-1.6620,1.835
11.301000,-0.8297,0.4018,-1.5608,1.813
11.302000,-0.9576,0.4847,-1.4095,1.772
11.303000,-0.9989,0.5391,-1.3337,1.751
11.326000,-1.0626,0.5817,-1.2683,1.754
11.327000,-1.0281,0.6462,-1.2031,1.709
11.328000,-0.9539,0.7720,-1.2164,1.728
11.328000,-0.7901,0.9268,-1.2588,1.752
11.329000,-0.5263,1.2256,-1.2333,1.817
11.330000,-0.1584,1.7328,-0.9899,2.002
11.336000,0.3057,2.4975,-0.6929,2.610
11.340000,0.8328,3.4289,-0.4453,3.557
11.346000,1.1662,4.3096,-0.3002,4.475
11.351000,1.4976,4.9629,-0.2305,5.189
11.367000,2.0264,5.1856,-0.2176,5.572
11.369000,2.4394,5.1998,-0.3195,5.752
11.370000,2.7286,5.0177,-0.4069,5.726
11.397000,2.8942,4.6415,-0.5109,5.494
11.399000,2.8854,4.1520,-0.4299,5.074
11.400000,2.6817,3.5296,-0.0680,4.433
11.401000,2.2456,2.8666,0.4440,3.668
11.402000,1.7317,2.1439,0.9380,2.911
11.403000,1.2696,1.4422,1.3543,2.351
11.404000,0.8634,0.8751,1.7032,2.100
11.409000,0.5961,0.3663,1.9027,2.027
11.412000,0.4444,-0.0196,2.0014,2.050
11.417000,0.3650,-0.3735,2.0009,2.068
11.424000,0.2699,-0.6526,1.9536,2.077
11.427000,0.1627,-0.8233,1.7856,1.973
11.432000,0.0141,-0.9418,1.6460,1.896
11.437000,-0.0999,-0.9767,1.5333,1.821
11.442000,-0.2269,-1.0198,1.3295,1.691
11.447000,-0.2716,-1.1020,1.1683,1.629
11.452000,-0.3624,-1.0412,1.0695,1.536
11.471000,-0.4636,-1.0027,0.9699,1.470
11.472000,-0.5240,-0.9394,0.9477,1.434
11.474000,-0.5487,-0.8371,0.9729,1.396
11.474000,-0.5827,-0.7020,1.0032,1.356
11.510000,-0.5794,-0.6621,0.9862,1.322
11.511000,-0.5587,-0.6495,0.9696,1.294
11.512000,-0.4724,-0.7493,1.0216,1.352
11.512000,-0.3619,-0.8541,1.1189,1.453
11.513000,-0.3020,-0.9055,1.1290,1.478
11.514000,-0.2574,-0.9265,1.2153,1.550
11.515000,-0.1946,-0.9079,1.2470,1.555
11.515000,-0.1515,-0.8759,1.3112,1.584
11.518000,-0.1474,-0.7901,1.4439,1.652
11.524000,-0.2025,-0.5702,1.6046,1.715
11.528000,-0.1546,-0.3525,1.6912,1.734
11.534000,-0.0410,-0.1284,1.7907,1.796
11.541000,0.0366,0.2120,1.8729,1.885
11.544000,0.0791,0.5148,1.9460,2.014
11.548000,0.1511,0.7765,1.9125,2.070
11.554000,0.1879,0.9793,1.8716,2.121
11.558000,0.2577,1.0779,1.7233,2.049
11.564000,0.2040,1.0964,1.4856,1.858
11.569000,0.1420,1.0599,1.1977,1.606
11.588000,-0.0408,0.9790,0.8672,1.308
11.589000,-0.2598,0.8275,0.6355,1.075
11.590000,-0.4422,0.6414,0.4672,0.908
11.591000,-0.5312,0.3431,0.3438,0.720
11.594000,-0.6759,0.0797,0.2013,0.710
11.598000,-0.7805,-0.1300,0.0862,0.796
11.604000,-0.7849,-0.3529,0.0341,0.861
11.633000,-0.8241,-0.6072,0.0377,1.024
11.635000,-0.8921,-0.7744,0.0281,1.182
11.635000,-0.9269,-0.9106,0.0292,1.300
11.636000,-0.9469,-1.0432,0.0617,1.410
11.636000,-0.9130,-1.2116,0.0396,1.518
11.637000,-0.8428,-1.3656,0.0167,1.605
11.640000,-0.7997,-1.4825,0.0804,1.686
11.647000,-0.7503,-1.5875,0.1755,1.765
11.650000,-0.7559,-1.7151,0.2342,1.889
11.655000,-0.7362,-1.8293,0.3285,1.999
11.662000,-0.6747,-1.9373,0.4525,2.101
11.665000,-0.5585,-2.0654,0.5537,2.210
11.670000,-0.4450,-2.1692,0.6447,2.306
11.688000,-0.3674,-2.2262,0.7039,2.364
11.690000,-0.2819,-2.2445,0.6994,2.368
11.691000,-0.1733,-2.2505,0.7124,2.367
11.695000,-0.0431,-2.2010,0.7082,2.313
11.696000,0.1275,-2.1668,0.7224,2.288
11.701000,0.2775,-2.1082,0.6855,2.234
11.706000,0.4024,-2.0291,0.5811,2.149
11.732000,0.5453,-1.9461,0.4674,2.074
11.733000,0.6192,-1.7866,0.2950,1.914
11.734000,0.7286,-1.6500,0.1474,1.810
11.735000,0.8019,-1.5793,0.0007,1.771
11.736000,0.8511,-1.4143,-0.0546,1.652
11.736000,0.8870,-1.2807,-0.2054,1.571
11.745000,0.8489,-1.1199,-0.3917,1.459
11.746000,0.8046,-0.9366,-0.5158,1.338
11.751000,0.7933,-0.7513,-0.5587,1.227
11.756000,0.8411,-0.6271,-0.5805,1.199
11.761000,0.8548,-0.4733,-0.6144,1.154
11.766000,0.8724,-0.3816,-0.6037,1.127
11.771000,0.9372,-0.3152,-0.5234,1.119
11.787000,1.0338,-0.2057,-0.4734,1.155
11.788000,1.1359,-0.1595,-0.4182,1.221
11.788000,1.1946,-0.0773,-0.3073,1.236
11.818000,1.2733,-0.0369,-0.2038,1.290
11.819000,1.3374,0.0073,-0.2030,1.353
11.820000,1.2576,0.0960,-0.1359,1.269
11.820000,1.1714,0.2231,0.0048,1.192
11.821000,1.1968,0.2753,-0.0592,1.230
11.821000,1.2751,0.3243,-0.1747,1.327
11.822000,1.2990,0.4704,-0.3190,1.418
11.831000,1.3140,0.5880,-0.4874,1.520
11.832000,1.3091,0.6998,-0.6768,1.631
11.837000,1.3515,0.8368,-0.8565,1.806
11.843000,1.3464,0.9356,-1.0487,1.946
11.847000,1.3350,0.9913,-1.2267,2.066
11.852000,1.2931,0.9980,-1.3822,2.140
11.858000,1.2019,1.0452,-1.4539,2.157
11.862000,1.0821,1.0146,-1.4586,2.080
11.867000,0.9253,0.9826,-1.4684,1.994
11.872000,0.8665,0.9183,-1.4458,1.919
11.877000,0.7970,0.8862,-1.3679,1.814
11.882000,0.8002,0.8100,-1.2858,1.718
11.887000,0.9026,0.7076,-1.2049,1.664
11.901000,0.9941,0.6364,-1.1344,1.637
11.902000,1.1090,0.5357,-1.0739,1.634
11.903000,1.2183,0.3731,-1.0292,1.638
11.930000,1.3426,0.2828,-0.9966,1.696
11.932000,1.3922,0.2202,-0.8828,1.663
11.932000,1.4662,0.1401,-0.9077,1.730
11.933000,1.5495,0.0580,-0.8988,1.792
11.934000,1.5906,-0.0154,-0.8761,1.816
11.934000,1.4773,-0.0287,-0.9423,1.752
11.938000,1.3424,0.4355,-0.8708,1.658
11.943000,1.2257,1.1377,-0.7711,1.842
11.948000,1.1683,1.9523,-0.7715,2.402
11.953000,1.1993,2.9119,-0.8588,3.264
11.960000,1.1801,3.8990,-1.0426,4.205
11.963000,1.1529,4.7978,-1.2735,5.096
11.968000,1.3505,5.2626,-1.6313,5.673
11.975000,1.6335,5.1906,-1.9409,5.777
11.979000,1.8601,4.6773,-2.1046,5.456
11.985000,1.9982,3.9844,-2.0516,4.907
11.988000,1.7966,3.3518,-1.7747,4.197
11.994000,1.2589,2.8283,-1.2811,3.350
11.999000,0.6830,2.3985,-0.6773,2.584
12.004000,0.2555,1.9134,-0.1191,1.934
12.018000,-0.0141,1.4475,0.3414,1.487
12.019000,-0.0960,0.9470,0.7153,1.191
12.020000,-0.1310,0.4858,1.0255,1.142
12.024000,-0.1711,0.0662,1.3414,1.354
12.049000,-0.2887,-0.2365,1.6290,1.671
12.050000,-0.4910,-0.4726,1.7965,1.921
12.050000,-0.6757,-0.6707,1.9272,2.150
12.051000,-0.8374,-0.8869,1.9314,2.284
12.051000,-0.9469,-1.1926,1.9038,2.438
12.054000,-1.0401,-1.3895,1.9817,2.634
12.061000,-1.1334,-1.4849,2.1226,2.828
12.065000,-1.2455,-1.6702,2.2245,3.048
12.069000,-1.2647,-1.8700,2.3662,3.270
12.075000,-1.2925,-1.9936,2.5208,3.464
12.080000,-1.4012,-2.1225,2.6364,3.663
12.084000,-1.4935,-2.2246,2.8095,3.882
12.089000,-1.6479,-2.2066,3.0247,4.091
12.095000,-1.7495,-2.2025,3.2202,4.276
12.100000,-1.9036,-2.1273,3.3145,4.374
12.105000,-2.0696,-1.9701,3.4390,4.471
12.118000,-2.2832,-1.6911,3.4634,4.480
12.120000,-2.4867,-1.3571,3.5189,4.518
12.121000,-2.7461,-0.9894,3.4812,4.543
12.146000,-2.9375,-0.5791,3.5438,4.639
12.148000,-3.1176,-0.2050,3.5646,4.740
12.149000,-3.2098,0.0785,3.5480,4.785
12.150000,-3.2449,0.2390,3.3846,4.695
12.152000,-3.2661,0.3894,3.2218,4.604
12.152000,-3.2018,0.5139,3.0400,4.445
12.156000,-2.9871,0.5264,2.8874,4.188
12.161000,-2.6788,0.4483,2.6512,3.796
12.166000,-2.3108,0.4565,2.2707,3.272
12.170000,-1.9229,0.4443,1.8982,2.738
12.176000,-1.5581,0.4223,1.6084,2.279
12.181000,-1.2098,0.4012,1.2042,1.753
12.186000,-0.8481,0.2913,0.7191,1.149
12.192000,-0.5573,0.2238,0.2861,0.665
12.196000,-0.2665,0.1101,-0.1748,0.337
12.201000,0.0046,-0.0070,-0.5513,0.551
12.206000,0.2335,-0.1217,-0.8992,0.937
12.211000,0.4501,-0.1638,-1.1525,1.248
12.216000,0.5679,-0.1803,-1.2950,1.426
12.221000,0.6585,-0.1439,-1.3019,1.466
12.240000,0.6728,-0.1577,-1.3674,1.532
12.241000,0.6893,-0.1583,-1.2514,1.437
12.242000,0.6592,-0.2092,-0.9688,1.190
12.243000,0.5757,-0.2933,-0.7359,0.979
12.246000,0.4543,-0.4810,-0.5408,0.855
12.251000,0.3331,-0.6727,-0.4310,0.866
12.257000,0.2613,-0.7500,-0.3385,0.863
12.286000,0.1955,-0.9005,-0.2128,0.946
12.288000,0.1593,-1.0703,-0.0944,1.086
12.289000,0.1874,-1.1946,-0.0328,1.210
12.289000,0.2128,-1.2447,0.0517,1.264
12.290000,0.1865,-1.3786,0.0876,1.394
12.291000,0.1181,-1.5006,0.0916,1.508
12.302000,0.0578,-1.5699,0.0184,1.571
12.303000,-0.0046,-1.5902,-0.0272,1.590
12.304000,-0.0919,-1.6345,-0.0807,1.639
12.316000,-0.1746,-1.7184,-0.1785,1.736
12.318000,-0.3202,-1.6865,-0.2042,1.729
12.319000,-0.5137,-1.6083,-0.1593,1.696
12.322000,-0.6554,-1.5183,-0.2250,1.669
12.338000,-0.7819,-1.4463,-0.2901,1.670
12.339000,-0.8671,-1.4389,-0.2921,1.705
12.340000,-0.8837,-1.3561,-0.3204,1.650
12.370000,-0.9371,-1.2602,-0.3765,1.615
12.371000,-0.9412,-1.0818,-0.4556,1.505
12.372000,-0.9121,-0.9248,-0.4722,1.382
12.373000,-0.8808,-0.8143,-0.4980,1.299
12.374000,-0.8435,-0.6870,-0.5610,1.224
12.374000,-0.8044,-0.5942,-0.5819,1.157
12.375000,-0.8091,-0.4248,-0.6324,1.111
12.384000,-0.7926,-0.3093,-0.6778,1.088
12.385000,-0.7883,-0.2404,-0.7884,1.141
12.388000,-0.7819,-0.1894,-0.8820,1.194
12.396000,-0.7421,-0.0978,-1.0184,1.264
12.398000,-0.7860,-0.0493,-1.0720,1.330
12.404000,-0.7666,-0.0474,-1.1651,1.395
12.409000,-0.7087,-0.0324,-1.2460,1.434
12.413000,-0.7413,-0.0749,-1.2778,1.479
12.419000,-0.7222,-0.0301,-1.3514,1.533
12.424000,-0.7144,-0.0047,-1.3401,1.519
12.429000,-0.7261,0.0265,-1.3659,1.547
12.434000,-0.7038,0.0217,-1.4121,1.578
12.439000,-0.7202,0.0382,-1.3806,1.558
12.461000,-0.7698,0.1096,-1.3361,1.546
12.463000,-0.7510,0.1403,-1.3283,1.532
12.464000,-0.6689,0.1853,-1.2821,1.458
12.465000,-0.6131,0.1801,-1.2570,1.410
12.466000,-0.4965,0.1833,-1.2575,1.364
12.471000,-0.3586,0.2321,-1.2202,1.293
12.474000,-0.2484,0.2331,-1.1978,1.245
12.515000,-0.1023,0.2963,-1.1840,1.225
12.516000,0.0350,0.3070,-1.1644,1.205
12.517000,0.2007,0.2999,-1.1530,1.208
12.518000,0.3558,0.2940,-1.2061,1.291
12.518000,0.4381,0.2426,-1.2796,1.374
12.519000,0.4507,0.1755,-1.4081,1.489
12.519000,0.4690,0.1048,-1.4746,1.551
12.520000,0.3927,0.0626,-1.5282,1.579
12.521000,0.2457,0.0728,-1.5281,1.549
12.525000,0.0446,0.1104,-1.5640,1.568
12.530000,-0.1310,0.1420,-1.5015,1.514
12.535000,-0.2995,0.2754,-1.4997,1.554
12.540000,-0.4181,0.3659,-1.5550,1.651
12.553000,-0.5265,0.4649,-1.6169,1.763
12.554000,-0.5580,0.6049,-1.7525,1.936
12.555000,-0.5212,0.6901,-1.8819,2.071
12.582000,-0.4752,0.8523,-1.9576,2.187
12.584000,-0.2979,1.0398,-2.0684,2.334
12.585000,-0.0510,1.4979,-1.8816,2.406
12.586000,0.2855,2.1656,-1.5046,2.652
12.586000,0.6309,2.9709,-1.1814,3.259
12.588000,0.9961,3.8078,-0.9690,4.053
12.590000,1.3201,4.5736,-0.8571,4.837
12.596000,1.6765,5.1251,-0.7275,5.441
12.600000,1.9899,5.3713,-0.4952,5.749
12.605000,2.2294,5.3117,-0.3069,5.769
12.612000,2.2789,5.0917,-0.2204,5.583
12.616000,2.1382,4.7478,-0.1321,5.209
12.621000,1.7988,4.3203,-0.0011,4.680
12.626000,1.1005,3.8844,0.2201,4.043
12.631000,0.3659,3.4540,0.6765,3.539
12.636000,0.0118,2.8979,1.1806,3.129
12.642000,0.0400,2.1554,1.4397,2.592
12.658000,0.2878,1.4379,1.6512,2.208
12.660000,0.3758,0.9732,1.8681,2.140
12.660000,0.2858,0.5624,1.9919,2.089
12.664000,0.1944,0.1305,2.1051,2.118
12.666000,0.1333,-0.2336,2.0693,2.087
12.671000,0.1197,-0.5275,1.8701,1.947
12.703000,0.1348,-0.7483,1.6182,1.788
12.705000,0.1236,-0.8993,1.3823,1.654
12.705000,0.1665,-1.0329,1.1208,1.533
12.706000,0.2243,-1.1704,0.9556,1.528
12.707000,0.3267,-1.2123,0.8427,1.512
12.708000,0.4527,-1.2843,0.7465,1.553
12.708000,0.5870,-1.3335,0.7336,1.631
12.718000,0.6735,-1.3148,0.8531,1.706
12.719000,0.7547,-1.2128,0.9405,1.710
12.722000,0.8515,-1.1439,1.1150,1.810
12.731000,0.8740,-1.0522,1.3327,1.910
12.733000,0.9199,-1.0518,1.5071,2.055
12.737000,0.9171,-1.0376,1.6124,2.125
12.744000,0.9069,-0.9429,1.6712,2.122
12.747000,0.8720,-0.8914,1.6544,2.072
12.752000,0.8140,-0.8376,1.5707,1.957
12.758000,0.7484,-0.7377,1.4718,1.808
12.763000,0.6669,-0.5665,1.2950,1.563
12.768000,0.5132,-0.3816,1.2922,1.442
12.773000,0.2929,-0.1409,1.2814,1.322
12.791000,0.1139,0.0864,1.3768,1.384
12.795000,-0.0529,0.3164,1.4418,1.477
12.796000,-0.2437,0.4846,1.4645,1.562
12.796000,-0.4143,0.6464,1.4652,1.654
12.802000,-0.5601,0.8282,1.4726,1.780
12.802000,-0.6850,0.9597,1.4281,1.852
12.808000,-0.8390,1.0829,1.3670,1.935
12.830000,-0.9962,1.1955,1.3128,2.036
12.831000,-1.1545,1.1650,1.2344,2.053
12.832000,-1.2007,0.9701,1.1154,1.904
12.833000,-1.1863,0.7306,0.9614,1.693
12.834000,-1.1791,0.4271,0.8018,1.488
12.839000,-1.0738,0.0358,0.6094,1.235
12.844000,-1.0113,-0.3346,0.4709,1.165
12.849000,-0.9327,-0.6103,0.3459,1.167
12.854000,-0.8885,-0.8307,0.2418,1.240
12.859000,-0.7983,-1.0955,0.1880,1.368
12.863000,-0.7352,-1.3997,0.1345,1.587
12.869000,-0.6694,-1.6226,0.0403,1.756
12.874000,-0.5624,-1.8290,0.0293,1.914
12.888000,-0.4850,-1.9937,0.0058,2.052
12.890000,-0.4759,-2.0928,0.0125,2.146
12.891000,-0.3833,-2.1825,0.0734,2.217
12.917000,-0.2518,-2.2734,0.1805,2.294
12.919000,-0.2019,-2.4013,0.2806,2.426
12.920000,-0.1655,-2.4825,0.4641,2.531
12.921000,-0.1071,-2.5324,0.6479,2.616
12.922000,-0.0653,-2.4837,0.8511,2.626
12.922000,-0.0019,-2.5195,1.0012,2.711
12.925000,0.1097,-2.5129,1.0946,2.743
12.929000,0.2109,-2.4078,1.0383,2.631
12.935000,0.2522,-2.2440,0.9948,2.468
12.940000,0.2506,-2.0551,0.8598,2.242
12.944000,0.2227,-1.8890,0.7560,2.047
12.950000,0.2138,-1.7086,0.6505,1.841
12.954000,0.2177,-1.5463,0.6113,1.677
12.961000,0.2295,-1.3768,0.5042,1.484
12.965000,0.3075,-1.1965,0.3926,1.296
12.970000,0.3872,-1.0127,0.2752,1.119
12.975000,0.4244,-0.8038,0.2152,0.934
12.980000,0.4346,-0.5794,0.2150,0.756
12.985000,0.5469,-0.3839,0.0665,0.671
12.990000,0.6166,-0.1956,-0.0341,0.648
13.006000,0.6678,-0.1091,-0.2152,0.710
13.007000,0.7545,-0.0059,-0.3478,0.831
13.007000,0.8078,0.0432,-0.4347,0.918
13.037000,0.8302,0.1076,-0.4283,0.940
13.038000,0.7820,0.1743,-0.3892,0.891
13.039000,0.7517,0.2350,-0.3311,0.854
13.039000,0.7498,0.2742,-0.2345,0.832
13.040000,0.8144,0.3303,-0.2478,0.913
13.041000,0.8655,0.3675,-0.3543,1.005
13.041000,0.9114,0.4311,-0.4724,1.113
13.050000,0.9189,0.4865,-0.5858,1.193
13.052000,0.9560,0.4641,-0.6456,1.243
13.056000,1.0139,0.4481,-0.6910,1.306
13.063000,1.0234,0.3713,-0.7902,1.345
13.066000,1.0361,0.3475,-0.9421,1.443
13.071000,1.0259,0.3357,-1.0215,1.486
13.078000,1.1162,0.3407,-1.0693,1.583
13.082000,1.2232,0.3612,-1.0711,1.666
13.086000,1.2478,0.3543,-1.1263,1.718
13.091000,1.2203,0.2898,-1.2649,1.781
13.106000,1.1657,0.2923,-1.3080,1.776
13.108000,1.1303,0.2756,-1.3406,1.775
13.109000,1.1197,0.2423,-1.3354,1.759
13.145000,1.0979,0.2054,-1.2947,1.710
13.146000,1.0543,0.1771,-1.2050,1.611
13.146000,1.0905,0.1788,-1.0662,1.536
13.147000,1.0485,0.1663,-0.9773,1.443
13.147000,1.0661,0.1671,-0.8760,1.390
13.148000,1.0631,0.1513,-0.8423,1.365
13.148000,1.0851,0.1177,-0.8798,1.402
13.148000,1.0888,0.0387,-0.9420,1.440
13.152000,1.0555,-0.0593,-1.0103,1.462
13.157000,1.0580,-0.0902,-1.0622,1.502
13.163000,1.0461,-0.1103,-1.0667,1.498
13.167000,1.0005,-0.1317,-1.0130,1.430
13.172000,0.9870,-0.1086,-0.9256,1.357
13.178000,0.9671,-0.0758,-0.8351,1.280
13.182000,0.8501,-0.0345,-0.8149,1.178
13.187000,0.7962,0.0286,-0.8342,1.154
13.193000,0.6786,0.2020,-0.8207,1.084
13.198000,0.5841,0.7237,-0.6951,1.161
13.203000,0.5709,1.5085,-0.5225,1.695
13.208000,0.5753,2.4104,-0.3089,2.497
13.221000,0.5221,3.3266,-0.2447,3.376
13.223000,0.4529,4.3241,-0.3885,4.365
13.224000,0.5039,5.0658,-0.6774,5.136
13.248000,0.6397,5.2828,-1.1598,5.446
13.249000,0.7581,5.0397,-1.6409,5.354
13.252000,0.9893,4.3688,-1.9375,4.881
13.253000,1.1371,3.5102,-1.9907,4.193
13.254000,0.9788,2.9213,-1.7547,3.546
13.255000,0.6681,2.6139,-1.2434,2.971
13.258000,0.2983,2.3629,-0.6411,2.466
13.263000,0.0246,2.1469,-0.0738,2.148
13.268000,-0.1441,1.8024,0.3985,1.852
13.274000,-0.2285,1.4002,0.7305,1.596
13.280000,-0.2648,1.0065,1.0201,1.457
13.284000,-0.2820,0.6212,1.2535,1.427
13.288000,-0.3330,0.1382,1.4303,1.475
13.305000,-0.4189,-0.2834,1.6470,1.723
13.306000,-0.4977,-0.5969,1.8415,1.999
13.306000,-0.5298,-1.0107,1.9601,2.268
13.308000,-0.5990,-1.3942,2.0039,2.514
13.332000,-0.6648,-1.7403,2.1013,2.808
13.333000,-0.7065,-2.0745,2.2410,3.134
13.334000,-0.7465,-2.3106,2.3374,3.370
13.335000,-0.8349,-2.5065,2.3542,3.539
13.336000,-0.8821,-2.6275,2.3868,3.658
13.339000,-1.0088,-2.6596,2.4633,3.763
13.345000,-1.0966,-2.6123,2.6107,3.853
13.349000,-1.1863,-2.5383,2.7506,3.926
13.354000,-1.2802,-2.4196,2.8644,3.962
13.359000,-1.3815,-2.2478,3.0295,4.017
13.365000,-1.4942,-2.0143,3.1353,4.015
13.369000,-1.6974,-1.6304,3.1113,3.901
13.375000,-1.9073,-1.2276,3.0738,3.820
13.379000,-2.1418,-0.6621,3.0578,3.792
13.385000,-2.3073,-0.1895,3.0417,3.822
13.390000,-2.4424,0.2038,3.1135,3.962
13.395000,-2.6291,0.6113,3.1445,4.144
13.400000,-2.7658,0.8263,3.0766,4.219
13.405000,-2.7666,0.8191,2.9411,4.120
13.410000,-2.7052,0.7550,2.8083,3.972
13.415000,-2.6288,0.6756,2.6382,3.785
13.420000,-2.3885,0.6705,2.4030,3.454
13.425000,-2.0376,0.5947,2.1077,2.991
13.443000,-1.6830,0.5343,1.7831,2.509
13.445000,-1.3469,0.5285,1.4379,2.040
13.445000,-1.0316,0.4505,0.9862,1.497
13.448000,-0.7190,0.3169,0.4835,0.923
13.452000,-0.4110,0.1013,0.0577,0.427
13.456000,-0.1586,-0.0492,-0.3232,0.363
13.490000,0.0325,-0.1840,-0.6223,0.650
13.491000,0.1924,-0.2589,-0.8474,0.907
13.492000,0.3144,-0.3125,-1.0018,1.096
13.492000,0.4374,-0.3449,-1.0277,1.169
13.493000,0.5267,-0.3862,-0.9216,1.130
13.494000,0.6145,-0.4771,-0.8150,1.127
13.495000,0.7009,-0.6024,-0.7111,1.166
13.506000,0.7719,-0.6937,-0.4985,1.151
13.507000,0.7396,-0.7789,-0.2901,1.113
13.508000,0.6004,-0.8421,-0.0271,1.035
13.521000,0.5834,-0.9644,0.0825,1.130
13.523000,0.5128,-1.1145,0.1163,1.232
13.523000,0.5057,-1.2194,0.1715,1.331
13.526000,0.4944,-1.3077,0.1504,1.406
13.544000,0.5033,-1.3722,0.0239,1.462
13.546000,0.5367,-1.4117,-0.0315,1.511
13.547000,0.5281,-1.3784,-0.0887,1.479
13.550000,0.4746,-1.2843,-0.0829,1.372
13.551000,0.3162,-1.1929,-0.1060,1.239
13.557000,0.1160,-1.0848,-0.1978,1.109
13.562000,-0.0368,-0.9648,-0.2848,1.007
13.590000,-0.1254,-0.9108,-0.3941,1.000
13.591000,-0.2325,-0.8581,-0.4739,1.007
13.592000,-0.3201,-0.7924,-0.5764,1.031
13.593000,-0.3879,-0.7377,-0.6266,1.043
13.594000,-0.5019,-0.6235,-0.6131,1.008
13.594000,-0.6372,-0.5107,-0.6236,1.027
13.604000,-0.7311,-0.4076,-0.6054,1.033
13.605000,-0.7455,-0.3535,-0.6253,1.035
13.608000,-0.7263,-0.3267,-0.6976,1.059
13.618000,-0.6793,-0.3261,-0.7406,1.057
13.619000,-0.6283,-0.2858,-0.7353,1.009
13.623000,-0.6510,-0.1845,-0.7379,1.001
13.645000,-0.5941,-0.1753,-0.7178,0.948
13.648000,-0.5638,-0.1073,-0.6031,0.833
13.649000,-0.5359,-0.1052,-0.5490,0.774
13.650000,-0.4951,-0.0957,-0.5477,0.744
13.651000,-0.4135,-0.0815,-0.5429,0.687
13.654000,-0.3473,-0.0241,-0.5861,0.682
13.658000,-0.3072,-0.0769,-0.6494,0.723
13.692000,-0.3060,-0.1285,-0.7617,0.831
13.693000,-0.3088,-0.1574,-0.8109,0.882
13.694000,-0.3323,-0.1829,-0.8918,0.969
13.698000,-0.3742,-0.2097,-0.9483,1.041
13.700000,-0.3475,-0.2115,-1.0018,1.081
13.702000,-0.3039,-0.2228,-1.0536,1.119
13.703000,-0.2481,-0.2210,-1.1230,1.171
13.704000,-0.2293,-0.1978,-1.1785,1.217
13.704000,-0.2486,-0.1996,-1.2443,1.285
13.709000,-0.3257,-0.1165,-1.2587,1.305
13.714000,-0.2937,-0.0105,-1.2884,1.321
13.718000,-0.1254,0.0180,-1.3240,1.330
13.724000,-0.0683,0.0647,-1.3285,1.332
13.743000,-0.0011,0.1389,-1.3079,1.315
13.745000,0.0651,0.1631,-1.2727,1.285
13.745000,0.1176,0.1971,-1.1867,1.209
13.746000,0.1372,0.1439,-1.1815,1.198
13.749000,0.2248,0.1649,-1.1275,1.162
13.754000,0.1855,0.1837,-1.1034,1.134
13.759000,0.1711,0.2050,-1.1589,1.189
13.779000,0.1589,0.1834,-1.1602,1.185
13.780000,0.1061,0.1548,-1.2123,1.227
13.780000,0.0486,0.1024,-1.2923,1.297
13.781000,-0.0141,0.0058,-1.4113,1.411
13.785000,-0.0964,-0.0669,-1.4402,1.445
13.789000,-0.2542,-0.0632,-1.4619,1.485
13.796000,-0.4290,-0.0344,-1.4514,1.514
13.799000,-0.5651,0.0027,-1.4690,1.574
13.805000,-0.7131,0.0770,-1.5205,1.681
13.810000,-0.7443,0.1501,-1.6144,1.784
13.815000,-0.8088,0.2140,-1.7724,1.960
13.820000,-0.8108,0.3128,-1.9147,2.103
13.825000,-0.7260,0.4419,-1.9874,2.161
13.829000,-0.5557,0.6574,-2.0720,2.244
13.836000,-0.2765,1.1040,-1.9207,2.233
13.840000,0.0707,1.9454,-1.6095,2.526
13.860000,0.5694,2.9641,-1.2119,3.253
13.862000,1.1447,3.9593,-0.8393,4.206
13.864000,1.5692,4.7099,-0.5473,4.994
13.866000,2.0087,5.1468,-0.3284,5.535
13.867000,2.4309,5.2210,-0.1974,5.763
13.870000,2.8111,5.0172,-0.0196,5.751
13.875000,3.0109,4.6017,0.0802,5.500
13.906000,2.9582,4.1009,0.2691,5.064
13.908000,2.8145,3.5561,0.5174,4.565
13.910000,2.4843,2.9350,0.9285,3.956
13.912000,2.0979,2.3393,1.2399,3.378
13.915000,1.7140,1.7524,1.5221,2.885
13.916000,1.4053,1.1374,1.7565,2.521
13.917000,1.1087,0.6080,1.8864,2.271
13.917000,0.9373,0.0998,1.9730,2.187
13.922000,0.8614,-0.2701,1.8973,2.101
13.926000,0.7471,-0.6335,1.6814,1.946
13.935000,0.6612,-0.8467,1.4908,1.838
13.937000,0.5961,-0.9157,1.2389,1.652
13.941000,0.5868,-0.9911,0.9476,1.492
13.947000,0.6089,-1.0809,0.7255,1.437
13.951000,0.6728,-1.0067,0.5448,1.328
13.957000,0.6909,-0.7841,0.5056,1.161
13.961000,0.7129,-0.4367,0.5448,0.998
13.976000,0.7667,-0.0995,0.6713,1.024
13.977000,0.8137,0.1010,0.7574,1.116
13.978000,0.9118,0.1885,0.8094,1.234
14.020000,0.9671,0.0589,0.8474,1.287
14.021000,0.9842,-0.1065,0.9461,1.369
14.022000,0.9520,-0.3500,1.1363,1.523
14.022000,0.8440,-0.5701,1.3824,1.717
14.023000,0.7335,-0.7396,1.6116,1.919
14.024000,0.6693,-0.8070,1.7675,2.055
14.025000,0.6022,-0.8119,1.7763,2.044
14.025000,0.4687,-0.7890,1.7780,2.001
14.026000,0.3093,-0.6772,1.7653,1.916
14.027000,0.3608,-0.5855,1.7358,1.867
14.035000,0.3528,-0.4696,1.7699,1.865
14.037000,0.2484,-0.2327,1.8383,1.870
14.043000,0.1179,-0.0037,1.9011,1.905
14.049000,-0.0451,0.1554,1.9330,1.940
14.052000,-0.1844,0.2666,1.8656,1.893
14.058000,-0.3946,0.3357,1.7762,1.850
14.078000,-0.5967,0.4492,1.6737,1.833
14.079000,-0.8305,0.5018,1.5332,1.814
14.080000,-1.0516,0.5677,1.3795,1.825
14.081000,-1.2497,0.5370,1.2504,1.848
14.084000,-1.4378,0.4622,1.0618,1.846
14.088000,-1.5132,0.2346,0.9265,1.790
14.093000,-1.5812,-0.0275,0.7121,1.734
14.116000,-1.6092,-0.3206,0.6299,1.758
14.117000,-1.6451,-0.6482,0.6060,1.869
14.118000,-1.6071,-0.9771,0.5708,1.966
14.119000,-1.5613,-1.2845,0.6162,2.114
14.121000,-1.5415,-1.5404,0.7108,2.292
14.124000,-1.4877,-1.7354,0.8020,2.422
14.133000,-1.3951,-1.9317,0.8798,2.540
14.135000,-1.2820,-2.0932,0.9971,2.649
14.139000,-1.2070,-2.1888,1.0097,2.696
14.144000,-1.1033,-2.2245,1.0017,2.678
14.149000,-1.0140,-2.1419,1.0312,2.584
14.154000,-0.9627,-2.0017,1.0566,2.460
14.159000,-0.8768,-1.8925,1.1389,2.376
14.176000,-0.7018,-1.7901,1.2627,2.300
14.177000,-0.4796,-1.7088,1.3698,2.242
14.178000,-0.3046,-1.6248,1.4512,2.200
14.207000,-0.1958,-1.5438,1.4765,2.145
14.208000,-0.1337,-1.4012,1.4962,2.054
14.209000,0.0151,-1.3067,1.4338,1.940
14.210000,0.3021,-1.1959,1.3903,1.859
14.211000,0.5565,-1.1023,1.1957,1.719
14.211000,0.7421,-1.0430,0.9872,1.617
14.212000,0.9097,-1.0191,0.7537,1.560
14.221000,1.0404,-0.9736,0.4861,1.506
14.221000,1.1188,-0.8873,0.3119,1.462
14.224000,1.2332,-0.8559,0.2221,1.517
14.232000,1.3860,-0.8089,0.0257,1.605
14.235000,1.5051,-0.7811,-0.2061,1.708
14.240000,1.5575,-0.6998,-0.3073,1.735
14.245000,1.5940,-0.5688,-0.3465,1.728
14.251000,1.5827,-0.4792,-0.3525,1.691
14.254000,1.4356,-0.3974,-0.3634,1.533
14.260000,1.2175,-0.2936,-0.3452,1.299
14.265000,0.9864,-0.2070,-0.3132,1.055
14.270000,0.8700,-0.1865,-0.3127,0.943
14.275000,0.7820,-0.1554,-0.3085,0.855
14.291000,0.7067,-0.0970,-0.2933,0.771
14.292000,0.6951,-0.0350,-0.1947,0.723
14.293000,0.6861,0.0545,-0.1129,0.697
14.295000,0.7128,0.1047,-0.1336,0.733
14.318000,0.7109,0.1586,-0.1623,0.746
14.319000,0.6898,0.2173,-0.2101,0.753
14.320000,0.6985,0.2570,-0.3071,0.805
14.320000,0.6843,0.3637,-0.3523,0.851
14.321000,0.6877,0.3868,-0.4065,0.888
14.326000,0.6633,0.4063,-0.4139,0.881
14.331000,0.7150,0.3555,-0.3678,0.879
14.336000,0.7958,0.2417,-0.4409,0.941
14.341000,0.9288,0.1810,-0.5541,1.097
14.348000,1.0473,0.0907,-0.7255,1.277
14.351000,1.1226,0.0568,-0.8036,1.382
14.356000,1.2343,0.0255,-0.8215,1.483
14.361000,1.3219,-0.0475,-0.8499,1.572
14.366000,1.3866,-0.0689,-0.8855,1.647
14.371000,1.4104,-0.0712,-0.8805,1.664
14.376000,1.4003,-0.0232,-0.8782,1.653
14.396000,1.3729,-0.0864,-0.9145,1.652
14.398000,1.4764,-0.1936,-1.0026,1.795
14.398000,1.6441,-0.3066,-1.0876,1.995
14.400000,1.6790,-0.3181,-1.1399,2.054
14.401000,1.7163,-0.3439,-1.0650,2.049
14.406000,1.7716,-0.3890,-0.9885,2.066
14.414000,1.7146,-0.3923,-0.8955,1.974
14.441000,1.6434,-0.3632,-0.7664,1.849
14.442000,1.6202,-0.3448,-0.6654,1.785
14.443000,1.5432,-0.3955,-0.5964,1.701
14.444000,1.4689,-0.3826,-0.6248,1.642
14.444000,1.3423,-0.3528,-0.7265,1.567
14.445000,1.1895,-0.2472,-0.8293,1.471
14.454000,1.0593,-0.1401,-0.8957,1.394
14.455000,0.9825,-0.0062,-1.0417,1.432
14.457000,0.8861,0.3540,-1.1298,1.479
14.463000,0.7841,1.0674,-1.1154,1.732
14.468000,0.7353,2.0152,-1.0080,2.370
14.472000,0.8239,3.1641,-0.9320,3.400
14.477000,0.8831,4.4077,-0.9976,4.605
14.483000,1.0061,5.4518,-1.1706,5.666
14.488000,1.2531,5.8924,-1.4855,6.205
14.493000,1.6524,5.7137,-1.7409,6.197
14.509000,2.1264,4.8626,-1.9270,5.646
14.511000,2.4085,3.6856,-1.9974,4.835
14.512000,2.2570,2.6386,-1.7594,3.893
14.513000,1.7430,2.1164,-1.2907,3.030
14.545000,1.1176,1.7986,-0.7854,2.258
14.546000,0.6189,1.4038,-0.2904,1.561
14.546000,0.3143,0.9675,0.1625,1.030
14.549000,0.3106,0.5380,0.6533,0.901
14.549000,0.4072,0.1057,0.9787,1.065
14.550000,0.4770,-0.2553,1.2854,1.395
14.551000,0.5243,-0.5034,1.5713,1.731
14.554000,0.4709,-0.7452,1.7065,1.921
14.558000,0.3025,-0.9593,1.8141,2.074
14.565000,0.0633,-1.1588,1.8254,2.163
14.568000,-0.1753,-1.3355,1.8476,2.286
14.574000,-0.3389,-1.5611,1.8159,2.419
14.578000,-0.4828,-1.8429,1.6409,2.514
14.585000,-0.6001,-2.1453,1.5707,2.726
14.588000,-0.7402,-2.3705,1.6286,2.970
14.594000,-0.8197,-2.5699,1.8452,3.268
14.609000,-0.8546,-2.7064,2.1970,3.589
14.611000,-0.9034,-2.7179,2.4270,3.754
14.612000,-0.9168,-2.5577,2.7680,3.879
14.639000,-1.0036,-2.3872,2.9938,3.958
14.641000,-1.0761,-2.0355,3.1188,3.877
14.642000,-1.1248,-1.6377,3.2402,3.801
14.643000,-1.1896,-1.2569,3.2587,3.690
14.644000,-1.2602,-0.9217,3.1580,3.523
14.645000,-1.4145,-0.5865,3.1415,3.495
14.646000,-1.5230,-0.2163,3.0771,3.440
14.651000,-1.6763,0.1224,3.0745,3.504
14.654000,-1.7588,0.4548,3.0306,3.533
14.658000,-1.7779,0.7633,2.8757,3.466
14.665000,-1.7415,1.0218,2.6338,3.319
14.669000,-1.5116,1.1833,2.2731,2.975
14.674000,-1.1189,1.2621,1.7724,2.447
14.679000,-0.6880,1.2924,1.2200,1.906
14.685000,-0.1942,1.3132,0.8250,1.563
14.690000,0.2535,1.2847,0.3996,1.369
14.694000,0.5499,1.2624,0.1384,1.384
14.699000,0.7493,1.2809,0.1300,1.490
14.705000,0.7631,1.2254,0.2094,1.459
14.710000,0.6599,1.2133,0.4300,1.447
14.730000,0.6210,1.1661,0.6402,1.468
14.731000,0.6581,1.0219,0.7549,1.431
14.732000,0.7197,0.9626,0.8780,1.488
14.733000,0.8236,0.8797,0.8994,1.504
14.736000,0.9056,0.7636,0.8756,1.473
14.740000,1.0241,0.6863,0.8162,1.479
14.745000,1.1671,0.5638,0.7224,1.484
14.772000,1.3765,0.4083,0.7255,1.609
14.774000,1.5149,0.2422,0.6494,1.666
14.774000,1.6128,0.0918,0.5367,1.702
14.776000,1.6615,-0.0442,0.5289,1.744
14.776000,1.7085,-0.1671,0.5501,1.803
14.777000,1.8099,-0.2985,0.5701,1.921
14.787000,1.8034,-0.4501,0.6106,1.956
14.789000,1.7932,-0.5565,0.6203,1.977
14.791000,1.7796,-0.7013,0.6575,2.023
14.796000,1.6934,-0.8416,0.6925,2.014
14.802000,1.6089,-0.9797,0.6919,2.007
14.806000,1.4736,-1.1145,0.6905,1.972
14.811000,1.3100,-1.2029,0.6998,1.911
14.816000,1.1505,-1.2511,0.6792,1.830
14.821000,0.9374,-1.2600,0.6657,1.706
14.826000,0.7409,-1.2203,0.6722,1.578
14.850000,0.5988,-1.1532,0.7261,1.489
14.851000,0.4771,-1.0946,0.7520,1.411
14.852000,0.4355,-1.0110,0.8172,1.371
14.853000,0.3791,-0.8568,0.8356,1.255
14.854000,0.3202,-0.7888,0.8769,1.222
14.886000,0.3186,-0.6921,0.9447,1.214
14.887000,0.2868,-0.5787,0.9935,1.185
14.888000,0.2322,-0.5106,1.0609,1.200
14.888000,0.1966,-0.4497,1.0930,1.198
14.889000,0.1501,-0.3994,1.1307,1.209
14.889000,0.0451,-0.3885,1.1179,1.184
14.890000,0.0144,-0.3475,1.0844,1.139
14.892000,-0.0055,-0.3149,1.0624,1.108
14.910000,-0.0599,-0.2583,1.0425,1.076
14.911000,-0.1165,-0.2423,0.9550,0.992
14.912000,-0.1311,-0.1606,0.8969,0.921
14.914000,-0.1563,-0.1052,0.8309,0.852
14.924000,-0.1564,-0.0618,0.7652,0.783
14.925000,-0.1861,-0.0340,0.6338,0.661
14.927000,-0.2074,0.0463,0.5633,0.602
14.944000,-0.2177,0.1084,0.4686,0.528
14.945000,-0.2364,0.1333,0.3842,0.470
14.945000,-0.2953,0.1831,0.3208,0.473
14.950000,-0.3074,0.2135,0.2364,0.443
14.980000,-0.3181,0.2711,0.2039,0.465
14.981000,-0.3359,0.2843,0.2338,0.498
14.981000,-0.3321,0.2889,0.2474,0.505
14.982000,-0.4107,0.3269,0.2994,0.604
14.982000,-0.4512,0.2702,0.3662,0.641
14.983000,-0.3750,0.1755,0.3951,0.572
14.984000,-0.2919,0.0449,0.4547,0.542
14.988000,-0.2602,-0.0293,0.6228,0.676
14.994000,-0.1844,-0.1035,0.6904,0.722
14.999000,-0.1008,-0.1594,0.7691,0.792
15.004000,-0.0270,-0.1564,0.8221,0.837
15.009000,0.0166,-0.2095,0.8447,0.870
15.014000,0.0932,-0.3316,0.8274,0.896
15.018000,0.1500,-0.4162,0.8037,0.917
15.024000,0.1777,-0.4586,0.7676,0.912
15.029000,0.2064,-0.4805,0.7393,0.906
15.047000,0.2074,-0.5298,0.7314,0.927
15.048000,0.2189,-0.5754,0.7714,0.987
15.049000,0.2293,-0.4692,0.7706,0.931
15.051000,0.2208,-0.4086,0.7801,0.908
15.054000,0.2282,-0.4223,0.9304,1.047
15.059000,0.2593,-0.4197,1.1185,1.222
15.064000,0.1926,-0.2848,1.1639,1.214
15.094000,0.1522,-0.2102,1.1183,1.148
15.095000,0.0855,-0.2029,1.0222,1.046
15.096000,-0.0139,-0.1697,0.8814,0.898
15.097000,-0.1257,-0.0973,0.9447,0.958
15.097000,-0.3078,0.0228,1.3365,1.372
15.098000,-0.4642,0.0687,1.6479,1.713
15.110000,-0.5856,0.1950,1.8476,1.948
15.111000,-0.6479,0.3946,1.8098,1.962
15.112000,-0.7195,0.5501,1.4660,1.723
15.125000,-0.8040,0.7917,1.1981,1.646
15.126000,-0.8419,0.9985,1.0948,1.704
15.126000,-0.8407,1.1979,0.9709,1.756
15.130000,-0.8171,1.3575,0.8559,1.801
15.136000,-0.7714,1.5325,0.8082,1.896
15.141000,-0.6640,1.5792,0.7918,1.887
15.145000,-0.4385,1.6138,0.8199,1.863
15.152000,-0.2872,1.5980,0.9487,1.880
15.155000,-0.0893,1.5700,1.0433,1.887
15.160000,0.1593,1.5299,1.1290,1.908
15.176000,0.3687,1.3713,1.1103,1.803
15.177000,0.6921,1.1112,1.1204,1.723
15.178000,0.9346,0.9551,1.2944,1.860
15.180000,1.0376,0.8290,1.4141,1.940
15.207000,1.0596,0.7925,1.4650,1.974
15.208000,0.9735,0.6544,1.5642,1.955
15.209000,0.9823,0.4317,1.6398,1.960
15.209000,0.9941,0.1794,1.6641,1.947
15.210000,0.9564,0.0611,1.7480,1.993
15.210000,0.8860,0.0910,1.7017,1.921
15.219000,0.8496,0.1086,1.7604,1.958
15.221000,0.8713,0.1042,1.8532,2.050
15.226000,0.8638,0.0827,2.0146,2.194
15.231000,0.8000,0.1014,2.1836,2.328
15.237000,0.6880,0.2153,2.3892,2.496
15.241000,0.6283,0.2835,2.4659,2.560
15.246000,0.5440,0.3181,2.4883,2.567
15.251000,0.4697,0.3778,2.5742,2.644
15.256000,0.3679,0.3840,2.5675,2.622
15.262000,0.3833,0.2506,2.5859,2.626
15.277000,0.3443,0.2300,2.5952,2.628
15.278000,0.3207,0.2372,2.6641,2.694
15.279000,0.3362,0.1958,2.8291,2.856
15.305000,0.3560,0.1933,2.8730,2.901
15.306000,0.4423,0.2629,2.8620,2.908
15.308000,0.4886,0.3307,2.8342,2.895
15.308000,0.5689,0.4276,2.6673,2.761
15.309000,0.6667,0.4426,2.5531,2.676
15.310000,0.7233,0.4068,2.5076,2.641
15.312000,0.8586,0.2989,2.4317,2.596
15.318000,0.9737,0.2299,2.3600,2.563
15.322000,1.0316,0.1030,2.2018,2.434
15.328000,1.0980,-0.0029,1.8773,2.175
15.334000,1.1611,-0.2269,1.3796,1.817
15.338000,1.1478,-0.4432,0.6859,1.409
15.342000,1.1018,-0.4920,0.2343,1.229
15.347000,1.0465,-0.5027,-0.0259,1.161
15.353000,1.0088,-0.5828,-0.0774,1.168
15.358000,0.9515,-0.5600,0.0653,1.106
15.363000,0.9787,-0.6258,0.3044,1.201
15.381000,1.0422,-0.8279,0.7210,1.514
15.383000,1.0477,-0.7820,1.1407,1.735
15.383000,0.9586,-0.7695,1.4487,1.900
15.386000,1.0017,-0.7780,1.4916,1.958
15.388000,1.1339,-0.7621,1.2469,1.850
15.393000,1.2383,-0.7975,0.8618,1.706
15.429000,1.2783,-0.9156,0.5409,1.663
15.430000,1.2786,-1.1198,0.2713,1.721
15.431000,1.2425,-1.2152,0.1399,1.744
15.432000,1.1997,-1.2077,0.2759,1.724
15.433000,1.2276,-1.1775,0.3959,1.747
15.434000,1.2773,-1.1557,0.3936,1.767
15.435000,1.4541,-1.0167,0.2726,1.795
15.436000,1.5911,-0.8902,0.0600,1.824
15.444000,1.6003,-0.7296,-0.2179,1.772
15.445000,1.5376,-0.6533,-0.3248,1.702
15.449000,1.5154,-0.5751,-0.2501,1.640
15.460000,1.4246,-0.4182,-0.1503,1.492
15.462000,1.4350,-0.3897,-0.0513,1.488
15.464000,1.5428,-0.3301,0.1525,1.585
15.471000,1.6838,-0.3567,0.4362,1.776
15.474000,1.7903,-0.3404,0.7274,1.962
15.479000,1.9163,-0.3732,1.0767,2.230
15.498000,2.0792,-0.4181,1.3356,2.506
15.499000,2.1667,-0.5156,1.6516,2.773
15.501000,2.0977,-0.6406,1.6211,2.727
15.502000,1.8947,-0.7392,1.5207,2.539
15.504000,1.7573,-0.7743,1.4857,2.428
15.509000,1.6771,-0.8335,1.3566,2.312
15.514000,1.5984,-0.8174,1.3108,2.223
15.546000,1.4654,-0.7059,1.2775,2.068
15.547000,1.3662,-0.5577,1.1675,1.882
15.547000,1.3819,-0.3692,1.2262,1.884
15.549000,1.4550,-0.0986,1.2394,1.914
15.550000,1.3839,0.0962,1.3037,1.904
15.551000,1.2270,0.3171,1.4545,1.929
15.561000,1.1488,0.4676,1.5613,1.994
15.562000,1.2423,0.4821,1.6791,2.144
15.562000,1.2817,0.4254,1.7846,2.238
15.566000,1.2523,0.4110,1.6726,2.130
15.576000,1.4102,0.3419,1.4734,2.068
15.577000,1.5623,0.2106,1.3167,2.054
15.581000,1.5856,0.1617,1.2416,2.020
15.587000,1.5616,0.0780,1.2259,1.987
15.590000,1.5187,0.0839,1.2385,1.961
15.596000,1.4472,0.1123,1.2528,1.917
15.615000,1.2860,0.1406,1.2722,1.814
15.616000,1.0863,0.2143,1.3339,1.734
15.617000,0.8188,0.3168,1.4750,1.716
15.618000,0.6085,0.3587,1.5832,1.734
15.621000,0.4578,0.4153,1.5390,1.658
15.626000,0.2996,0.4819,1.3439,1.459
15.631000,0.1961,0.5417,1.1171,1.257
15.652000,0.1173,0.5899,0.9779,1.148
15.654000,0.1435,0.6335,0.8376,1.060
15.654000,0.1636,0.6331,0.7844,1.021
15.655000,0.0750,0.6365,0.7950,1.021
15.656000,-0.0051,0.6176,0.7261,0.953
15.662000,0.0157,0.5548,0.6102,0.825
15.668000,0.1542,0.4659,0.5030,0.703
15.672000,0.2828,0.4117,0.4448,0.669
15.677000,0.2665,0.4412,0.2976,0.595
15.682000,0.2640,0.4777,0.0296,0.547
15.688000,0.3418,0.4399,0.0249,0.558
15.692000,0.4435,0.3493,0.1095,0.575
15.697000,0.4592,0.2262,0.0831,0.519
15.716000,0.3890,0.1652,-0.0441,0.425
15.717000,0.4768,0.1374,0.2301,0.547
15.718000,0.4452,0.2206,0.3317,0.597
15.719000,0.4256,0.3215,0.4086,0.672
15.722000,0.4753,0.3304,0.5588,0.805
15.727000,0.5383,0.3251,0.6448,0.901
15.731000,0.6353,0.2709,0.7293,1.004
15.763000,0.6710,0.1282,0.7107,0.986
15.764000,0.5464,0.0574,0.6105,0.821
15.765000,0.4001,0.1215,0.2769,0.502
15.765000,0.5044,0.2702,0.4165,0.708
15.766000,0.4843,0.3300,0.4268,0.725
15.767000,0.4270,0.2078,0.3054,0.565
15.769000,0.4194,0.0738,0.4587,0.626
15.772000,0.4327,-0.1272,0.4299,0.623
15.778000,0.3437,-0.1738,0.2920,0.483
15.785000,0.3340,-0.0698,0.2659,0.433
15.788000,0.3226,0.0865,0.4318,0.546
15.793000,0.3139,0.2007,0.4670,0.597
15.798000,0.3035,0.2489,0.5718,0.694
15.804000,0.3869,0.2088,0.7275,0.850
15.808000,0.4963,0.1365,0.8030,0.954
15.813000,0.5482,0.1133,0.6428,0.852
15.832000,0.5916,0.1318,0.5441,0.815
15.834000,0.6652,0.0842,0.5880,0.892
15.834000,0.7188,0.0423,0.6069,0.942
15.835000,0.7355,-0.0023,0.5626,0.926
15.838000,0.7404,-0.0663,0.6080,0.960
15.843000,0.7154,-0.1064,0.7198,1.020
15.848000,0.6136,-0.1129,0.8228,1.033
15.872000,0.6287,-0.1983,0.9147,1.128
15.873000,0.6888,-0.2165,0.8522,1.117
15.874000,0.7116,-0.2658,0.8372,1.130
15.874000,0.7605,-0.3189,0.7747,1.132
15.875000,0.9198,-0.3411,0.8106,1.273
15.879000,0.9588,-0.2370,0.7808,1.259
15.885000,0.9946,-0.1288,0.7091,1.228
15.889000,0.9492,-0.0318,0.7580,1.215
15.894000,0.9290,-0.0346,0.7239,1.178
15.899000,0.9256,-0.1179,0.7878,1.221
15.904000,0.9343,-0.1033,0.8459,1.265
15.909000,0.8763,0.0043,0.8085,1.192
15.914000,0.8483,-0.0260,0.8552,1.205
15.930000,0.8818,-0.0481,1.0452,1.368
15.931000,0.9675,-0.1264,1.0391,1.425
15.932000,1.0864,-0.2193,0.8768,1.413
15.964000,0.8308,-0.1210,0.9526,1.270
15.965000,0.5378,-0.0290,1.0321,1.164
15.966000,0.3576,-0.0970,1.1241,1.184
15.966000,0.2659,-0.1062,1.1688,1.203
15.967000,0.0920,0.1334,1.1817,1.193
15.968000,-0.1194,0.3359,1.1400,1.194
15.968000,-0.1686,0.4344,1.1657,1.255
15.969000,-0.1749,0.5881,1.3090,1.446
15.976000,-0.1766,0.6938,1.2028,1.400
15.980000,-0.1204,0.7875,0.9798,1.263
15.985000,-0.0579,0.7865,0.7894,1.116
15.990000,-0.0991,0.8032,0.6899,1.063
15.995000,-0.0955,0.7779,0.7744,1.102
